raw_line
"190580,0.129714,-0.181677,0.707156,-0.670893,0.591570,-9.820778,-0.656235,-0.305176,0.122070,0.305176,-93.799957,-3.457931,-154.419220,-0.000127,-0.050165,-0.007279"
=== RAM LOG DUMP BEGIN ===
"t_ms,qw,qx,qy,qz,ax,ay,az,gx,gy,gz,mx,my,mz"
"120005,0.342649,-0.403057,0.612901,-0.586932,0.053101,-1.000977,-0.076660,-0.003196,0.003196,0.001065,0.000000,0.000000,0.000000"
"120029,0.343285,-0.402452,0.612881,-0.586996,0.051880,-0.999268,-0.075562,0.007457,0.003196,-0.005326,0.000000,0.000000,0.000000"
"120055,0.342901,-0.402041,0.613112,-0.587261,0.052246,-0.998413,-0.075806,0.030893,0.007457,-0.020240,-53.000000,-14.000000,10.000000"
"120079,0.342682,-0.402239,0.613382,-0.586971,0.051514,-0.998901,-0.078247,0.042611,0.007457,-0.026632,0.000000,0.000000,0.000000"
"120099,0.342557,-0.402348,0.613691,-0.586647,0.051025,-0.999390,-0.079224,0.043676,0.008522,-0.027697,0.000000,0.000000,0.000000"
"120126,0.342486,-0.402405,0.614030,-0.586294,0.050171,-1.000366,-0.081055,0.041545,0.008522,-0.025566,0.000000,0.000000,0.000000"
"120151,0.342131,-0.402010,0.614298,-0.586491,0.048828,-1.000122,-0.081909,0.015979,0.005326,-0.009587,-52.000000,-13.000000,14.000000"
"120175,0.342152,-0.402001,0.614814,-0.585945,0.049438,-1.000244,-0.081299,0.002131,0.003196,-0.003196,0.000000,0.000000,0.000000"
"120202,0.342059,-0.402096,0.615331,-0.585390,0.049438,-1.000610,-0.082764,-0.006392,0.002131,0.005326,0.000000,0.000000,0.000000"
"120226,0.342114,-0.402059,0.615936,-0.584748,0.049194,-1.000244,-0.082153,-0.018109,0.001065,0.010653,0.000000,0.000000,0.000000"
"120254,0.341769,-0.401652,0.616415,-0.584724,0.048828,-1.000000,-0.079956,-0.033023,-0.003196,0.023436,-54.000000,-14.000000,11.000000"
"120279,0.341833,-0.401575,0.616102,-0.585069,0.050049,-1.000244,-0.079834,-0.044741,-0.004261,0.029827,0.000000,0.000000,0.000000"
"120299,0.341773,-0.401603,0.615783,-0.585420,0.051758,-1.000366,-0.078247,-0.051133,-0.003196,0.031958,0.000000,0.000000,0.000000"
"120327,0.341657,-0.401689,0.615456,-0.585774,0.053101,-1.000488,-0.077393,-0.052198,-0.004261,0.031958,0.000000,0.000000,0.000000"
"120356,0.341300,-0.401290,0.615984,-0.585700,0.052979,-0.999146,-0.075195,-0.045806,-0.004261,0.028762,-52.000000,-14.000000,10.000000"
"120381,0.341236,-0.401324,0.615572,-0.586147,0.055054,-0.998901,-0.074097,-0.028762,-0.002131,0.017044,0.000000,0.000000,0.000000"
"120405,0.341146,-0.401369,0.615096,-0.586668,0.056396,-0.998413,-0.072876,-0.012783,0.001065,0.008522,0.000000,0.000000,0.000000"
"120429,0.341092,-0.401379,0.614575,-0.587238,0.054199,-1.000488,-0.075439,0.000000,0.002131,0.000000,0.000000,0.000000,0.000000"
"120455,0.340707,-0.400965,0.614919,-0.587384,0.053833,-0.999756,-0.074707,-0.001065,0.002131,0.000000,-53.000000,-12.000000,9.000000"
"120476,0.340748,-0.400898,0.614450,-0.587897,0.053955,-1.000366,-0.074707,-0.007457,0.000000,0.005326,0.000000,0.000000,0.000000"
"120500,0.340746,-0.400862,0.613995,-0.588398,0.055054,-1.000488,-0.072998,-0.013848,0.001065,0.006392,0.000000,0.000000,0.000000"
"120520,0.340719,-0.400850,0.613518,-0.588919,0.054932,-1.000488,-0.073486,-0.010653,0.001065,0.004261,0.000000,0.000000,0.000000"
"120548,0.340345,-0.400448,0.613834,-0.589080,0.055420,-0.999634,-0.072754,0.004261,0.001065,-0.003196,-52.000000,-12.000000,10.000000"
"120571,0.340277,-0.400522,0.614359,-0.588521,0.053833,-1.001343,-0.075684,-0.006392,0.002131,0.003196,0.000000,0.000000,0.000000"
"120596,0.340369,-0.400407,0.613920,-0.589003,0.054565,-0.998901,-0.072998,-0.010653,0.000000,0.006392,0.000000,0.000000,0.000000"
"120620,0.339694,-0.401008,0.613686,-0.589228,0.055176,-1.000366,-0.074951,-0.012783,0.001065,0.008522,0.000000,0.000000,0.000000"
"120645,0.339323,-0.400596,0.614171,-0.589217,0.055298,-1.002075,-0.074707,-0.034088,-0.002131,0.022371,-55.000000,-13.000000,9.000000"
"120670,0.339525,-0.400380,0.613856,-0.589576,0.055908,-0.998535,-0.071167,-0.028762,-0.001065,0.015979,0.000000,0.000000,0.000000"
"120696,0.339612,-0.400254,0.613298,-0.590191,0.057251,-0.998901,-0.069580,0.020240,0.004261,-0.010653,0.000000,0.000000,0.000000"
"120725,0.339720,-0.400159,0.613777,-0.589695,0.053833,-1.001831,-0.075806,0.017044,0.005326,-0.009587,0.000000,0.000000,0.000000"
"120754,0.339341,-0.399768,0.614166,-0.589775,0.055420,-1.001343,-0.075806,-0.018109,0.001065,0.008522,-53.000000,-11.000000,12.000000"
"120774,0.339634,-0.399472,0.613944,-0.590037,0.054810,-1.000122,-0.072388,-0.039415,-0.002131,0.024501,0.000000,0.000000,0.000000"
"120799,0.339811,-0.399288,0.613711,-0.590302,0.055176,-1.001587,-0.070923,-0.053263,-0.004261,0.034088,0.000000,0.000000,0.000000"
"120823,0.339795,-0.399287,0.613461,-0.590572,0.056519,-1.002441,-0.069702,-0.067112,-0.006392,0.041545,0.000000,0.000000,0.000000"
"120848,0.339431,-0.398876,0.613999,-0.590500,0.058350,-0.998047,-0.068604,-0.050067,-0.003196,0.034088,-53.000000,-12.000000,10.000000"
"120871,0.339133,-0.399132,0.613639,-0.590872,0.059326,-0.999878,-0.069458,-0.045806,-0.004261,0.028762,0.000000,0.000000,0.000000"
"120896,0.339136,-0.399098,0.613290,-0.591255,0.059814,-0.998535,-0.064209,-0.040480,-0.002131,0.022371,0.000000,0.000000,0.000000"
"120920,0.339158,-0.399038,0.612842,-0.591747,0.060425,-0.998779,-0.062866,-0.012783,0.001065,0.010653,0.000000,0.000000,0.000000"
"120946,0.338772,-0.398632,0.613179,-0.591894,0.059570,-0.999634,-0.064331,-0.004261,0.001065,0.001065,-53.000000,-11.000000,10.000000"
"120968,0.338706,-0.398648,0.612613,-0.592506,0.060669,-0.998779,-0.064209,0.009587,0.003196,-0.007457,0.000000,0.000000,0.000000"
"120988,0.338667,-0.398619,0.611926,-0.593257,0.060303,-0.999023,-0.064331,0.043676,0.008522,-0.025566,0.000000,0.000000,0.000000"
"121012,0.339016,-0.398238,0.611366,-0.593891,0.058472,-0.999390,-0.066162,0.058590,0.009587,-0.038350,0.000000,0.000000,0.000000"
"121037,0.338602,-0.397819,0.611430,-0.594341,0.057861,-1.000000,-0.067261,0.067112,0.011718,-0.043676,-53.000000,-11.000000,9.000000"
"121061,0.338553,-0.397857,0.611727,-0.594038,0.055664,-1.001831,-0.071533,0.054328,0.009587,-0.033023,0.000000,0.000000,0.000000"
"121083,0.338491,-0.397922,0.612135,-0.593610,0.054565,-1.000977,-0.074585,0.024501,0.005326,-0.014914,0.000000,0.000000,0.000000"
"121107,0.338521,-0.397917,0.612682,-0.593031,0.054932,-1.001953,-0.071655,-0.005326,0.001065,0.002131,0.000000,0.000000,0.000000"
"121127,0.338459,-0.397993,0.613226,-0.592453,0.056152,-0.999878,-0.070435,-0.010653,0.001065,0.006392,0.000000,0.000000,0.000000"
"121158,0.338089,-0.397586,0.613615,-0.592535,0.054810,-1.000244,-0.071533,-0.010653,0.002131,0.007457,-52.000000,-13.000000,10.000000"
"121178,0.337585,-0.398066,0.613853,-0.592254,0.057129,-1.000244,-0.070435,-0.007457,0.000000,0.005326,0.000000,0.000000,0.000000"
"121205,0.338262,-0.397425,0.614001,-0.592144,0.056274,-0.999146,-0.070435,0.003196,0.003196,-0.001065,0.000000,0.000000,0.000000"
"121229,0.337915,-0.397751,0.614351,-0.591761,0.056030,-1.000000,-0.072998,0.002131,0.003196,-0.001065,0.000000,0.000000,0.000000"
"121258,0.337539,-0.397343,0.614692,-0.591895,0.056519,-1.000122,-0.070312,0.000000,0.003196,0.000000,-52.000000,-13.000000,10.000000"
"121282,0.337646,-0.397187,0.614077,-0.592577,0.056519,-0.999023,-0.068481,0.037284,0.007457,-0.022371,0.000000,0.000000,0.000000"
"121306,0.337453,-0.397355,0.614317,-0.592325,0.056030,-1.000122,-0.071411,0.054328,0.009587,-0.031958,0.000000,0.000000,0.000000"
"121329,0.337421,-0.397382,0.614632,-0.591999,0.054810,-1.000122,-0.073730,0.050067,0.008522,-0.030893,0.000000,0.000000,0.000000"
"121355,0.337048,-0.396974,0.614785,-0.592325,0.053833,-0.999512,-0.075684,0.043676,0.007457,-0.025566,-50.000000,-11.000000,11.000000"
"121380,0.337094,-0.396931,0.615252,-0.591844,0.052856,-1.000610,-0.075806,0.017044,0.006392,-0.012783,0.000000,0.000000,0.000000"
"121406,0.337115,-0.396919,0.615741,-0.591331,0.052856,-1.000732,-0.076294,0.009587,0.004261,-0.006392,0.000000,0.000000,0.000000"
"121434,0.337044,-0.397003,0.616319,-0.590712,0.052856,-1.001953,-0.078125,-0.020240,0.000000,0.013848,0.000000,0.000000,0.000000"
"121459,0.336704,-0.396610,0.616843,-0.590623,0.052612,-1.001709,-0.077026,-0.047937,-0.004261,0.031958,-52.000000,-13.000000,12.000000"
"121483,0.336921,-0.396399,0.616732,-0.590757,0.053711,-1.001709,-0.073730,-0.079895,-0.007457,0.051133,0.000000,0.000000,0.000000"
"121507,0.336859,-0.396454,0.616594,-0.590899,0.055176,-1.000854,-0.072632,-0.098004,-0.010653,0.061785,0.000000,0.000000,0.000000"
"121530,0.336775,-0.396531,0.616505,-0.590988,0.058594,-1.000610,-0.068970,-0.110787,-0.011718,0.070307,0.000000,0.000000,0.000000"
"121556,0.336412,-0.396130,0.617203,-0.590735,0.059814,-0.999146,-0.066895,-0.092678,-0.009587,0.057524,-52.000000,-12.000000,9.000000"
"121576,0.336337,-0.396154,0.616677,-0.591312,0.063599,-0.995850,-0.060913,0.001065,0.003196,-0.001065,0.000000,0.000000,0.000000"
"121603,0.336315,-0.396105,0.615882,-0.592185,0.061401,-0.997070,-0.060913,0.072438,0.011718,-0.044741,0.000000,0.000000,0.000000"
"121623,0.336250,-0.396088,0.614936,-0.593215,0.059082,-0.998047,-0.066162,0.106526,0.014914,-0.068177,0.000000,0.000000,0.000000"
"121645,0.335854,-0.395671,0.614841,-0.593815,0.056396,-1.001343,-0.072144,0.104396,0.014914,-0.063916,-52.000000,-11.000000,11.000000"
"121667,0.335653,-0.395843,0.614927,-0.593726,0.056641,-1.002197,-0.073120,0.091613,0.012783,-0.057524,0.000000,0.000000,0.000000"
"121693,0.335703,-0.395783,0.615119,-0.593538,0.054077,-1.000366,-0.074463,0.086286,0.012783,-0.053263,0.000000,0.000000,0.000000"
"121715,0.335675,-0.395795,0.615372,-0.593284,0.053711,-1.000366,-0.076050,0.066046,0.011718,-0.044741,0.000000,0.000000,0.000000"
"121745,0.335262,-0.395367,0.615489,-0.593681,0.051514,-1.000000,-0.078613,0.060720,0.010653,-0.038350,-53.000000,-12.000000,6.000000"
"121768,0.335266,-0.395364,0.615849,-0.593307,0.050537,-1.000732,-0.081299,0.041545,0.007457,-0.024501,0.000000,0.000000,0.000000"
"121790,0.335269,-0.395362,0.616274,-0.592866,0.050415,-1.000122,-0.081421,0.025566,0.006392,-0.014914,0.000000,0.000000,0.000000"
"121812,0.335299,-0.395350,0.616809,-0.592300,0.048950,-1.000854,-0.082886,-0.002131,0.002131,0.000000,0.000000,0.000000,0.000000"
"121838,0.334942,-0.394947,0.617254,-0.592307,0.049927,-0.999756,-0.080688,-0.026632,-0.001065,0.018109,-52.000000,-12.000000,10.000000"
"121861,0.334939,-0.394987,0.617925,-0.591582,0.051025,-1.000488,-0.081177,-0.039415,-0.004261,0.026632,0.000000,0.000000,0.000000"
"121883,0.335106,-0.394873,0.618729,-0.590723,0.050537,-1.001587,-0.079346,-0.064981,-0.006392,0.040480,0.000000,0.000000,0.000000"
"121905,0.335077,-0.394893,0.618519,-0.590945,0.053711,-0.998779,-0.075195,-0.078830,-0.008522,0.047937,0.000000,0.000000,0.000000"
"121924,0.335096,-0.394849,0.618213,-0.591285,0.053955,-0.998779,-0.074341,-0.049002,-0.003196,0.031958,0.000000,0.000000,0.000000"
"121948,0.334712,-0.394430,0.618708,-0.591264,0.054199,-0.999878,-0.073608,-0.036219,-0.002131,0.022371,-50.000000,-12.000000,6.000000"
"121967,0.334763,-0.394359,0.618326,-0.591682,0.054565,-0.999023,-0.072144,-0.028762,-0.002131,0.015979,0.000000,0.000000,0.000000"
"121992,0.334662,-0.394415,0.617841,-0.592209,0.054810,-0.999634,-0.073608,-0.011718,0.001065,0.006392,0.000000,0.000000,0.000000"
"122014,0.334677,-0.394361,0.617344,-0.592754,0.054932,-1.000244,-0.072754,-0.002131,0.002131,-0.001065,0.000000,0.000000,0.000000"
"122040,0.334306,-0.393972,0.617709,-0.592842,0.055786,-1.000854,-0.072632,-0.006392,0.001065,0.001065,-53.000000,-15.000000,10.000000"
"122060,0.333674,-0.394531,0.617330,-0.593220,0.055908,-0.999023,-0.073730,-0.003196,0.001065,0.000000,0.000000,0.000000,0.000000"
"122082,0.334245,-0.393974,0.617160,-0.593446,0.055420,-0.999023,-0.072876,0.014914,0.004261,-0.008522,0.000000,0.000000,0.000000"
"122103,0.334122,-0.394097,0.617575,-0.593003,0.054321,-1.001465,-0.075806,0.015979,0.004261,-0.011718,0.000000,0.000000,0.000000"
"122124,0.334662,-0.393595,0.618012,-0.592575,0.053467,-1.000122,-0.073975,0.002131,0.004261,-0.005326,0.000000,0.000000,0.000000"
"122151,0.334298,-0.393191,0.618306,-0.592742,0.053345,-1.000854,-0.073486,0.004261,0.004261,-0.001065,-53.000000,-11.000000,13.000000"
"122174,0.333953,-0.393533,0.618765,-0.592230,0.053589,-1.001343,-0.076904,-0.027697,-0.002131,0.017044,0.000000,0.000000,0.000000"
"122195,0.333770,-0.393687,0.618349,-0.592666,0.054199,-0.999512,-0.074707,-0.033023,-0.004261,0.019175,0.000000,0.000000,0.000000"
"122217,0.333851,-0.393632,0.618964,-0.592015,0.053711,-0.999390,-0.075439,-0.019175,0.000000,0.013848,0.000000,0.000000,0.000000"
"122240,0.333469,-0.393210,0.619390,-0.592065,0.054687,-1.000366,-0.074219,-0.020240,0.000000,0.013848,-52.000000,-12.000000,7.000000"
"122262,0.333328,-0.393311,0.618943,-0.592544,0.056641,-1.000854,-0.072754,-0.023436,-0.001065,0.012783,0.000000,0.000000,0.000000"
"122282,0.333327,-0.393284,0.618507,-0.593018,0.056763,-0.999023,-0.070190,-0.019175,-0.001065,0.009587,0.000000,0.000000,0.000000"
"122310,0.333379,-0.393192,0.617988,-0.593590,0.055786,-0.998657,-0.071167,0.007457,0.003196,-0.003196,0.000000,0.000000,0.000000"
"122330,0.332939,-0.393606,0.618312,-0.593225,0.055298,-1.001709,-0.073975,-0.010653,0.001065,0.006392,0.000000,0.000000,0.000000"
"122356,0.332574,-0.393214,0.618748,-0.593236,0.056152,-1.001709,-0.072632,-0.025566,-0.001065,0.013848,-52.000000,-14.000000,10.000000"
"122374,0.332696,-0.393067,0.618383,-0.593645,0.056641,-1.000122,-0.069824,-0.025566,0.000000,0.012783,0.000000,0.000000,0.000000"
"122398,0.332859,-0.392877,0.617937,-0.594143,0.056396,-0.999268,-0.068604,0.000000,0.002131,0.000000,0.000000,0.000000,0.000000"
"122420,0.332826,-0.392853,0.617297,-0.594843,0.056641,-1.000000,-0.071167,0.031958,0.006392,-0.019175,0.000000,0.000000,0.000000"
"122440,0.332450,-0.392458,0.617536,-0.595066,0.056396,-0.999878,-0.071411,0.024501,0.005326,-0.017044,-51.000000,-14.000000,10.000000"
"122460,0.332758,-0.392172,0.617981,-0.594619,0.055664,-0.998901,-0.071533,0.024501,0.006392,-0.017044,0.000000,0.000000,0.000000"
"122483,0.332618,-0.392306,0.618362,-0.594214,0.054810,-1.000122,-0.073730,0.023436,0.005326,-0.012783,0.000000,0.000000,0.000000"
"122500,0.332425,-0.392493,0.618793,-0.593749,0.054687,-1.001587,-0.076172,0.004261,0.003196,-0.003196,0.000000,0.000000,0.000000"
"122524,0.333078,-0.391875,0.618882,-0.593698,0.054077,-1.000977,-0.073853,-0.006392,0.002131,0.001065,0.000000,0.000000,0.000000"
"122545,0.332704,-0.391487,0.619166,-0.593869,0.054810,-0.998657,-0.070679,0.004261,0.002131,-0.005326,-52.000000,-11.000000,12.000000"
"122560,0.332575,-0.391550,0.618522,-0.594569,0.055176,-0.999146,-0.071167,0.028762,0.006392,-0.015979,0.000000,0.000000,0.000000"
"122580,0.332412,-0.391713,0.618859,-0.594203,0.053833,-1.001099,-0.075317,0.030893,0.004261,-0.017044,0.000000,0.000000,0.000000"
"122602,0.332178,-0.391939,0.619238,-0.593789,0.054077,-1.000977,-0.077759,0.011718,0.003196,-0.007457,0.000000,0.000000,0.000000"
"122623,0.332045,-0.392066,0.619692,-0.593306,0.053833,-0.999756,-0.075928,0.005326,0.004261,-0.005326,0.000000,0.000000,0.000000"
"122649,0.331662,-0.391658,0.619971,-0.593498,0.052979,-1.000122,-0.074585,0.011718,0.005326,-0.008522,-52.000000,-12.000000,10.000000"
"122666,0.331909,-0.391384,0.619488,-0.594045,0.053833,-0.999512,-0.073730,0.021305,0.005326,-0.012783,0.000000,0.000000,0.000000"
"122684,0.331816,-0.391473,0.619889,-0.593620,0.052979,-1.000488,-0.077148,0.023436,0.005326,-0.011718,0.000000,0.000000,0.000000"
"122706,0.331795,-0.391515,0.620368,-0.593103,0.052246,-1.000366,-0.078125,0.007457,0.001065,-0.003196,0.000000,0.000000,0.000000"
"122722,0.331791,-0.391485,0.619873,-0.593643,0.053101,-0.998779,-0.076172,-0.004261,0.001065,0.001065,0.000000,0.000000,0.000000"
"122743,0.331434,-0.391093,0.620163,-0.593797,0.053223,-0.999756,-0.076660,0.007457,0.002131,-0.004261,-53.000000,-13.000000,12.000000"
"122765,0.331312,-0.391215,0.620619,-0.593308,0.052979,-1.000488,-0.077515,0.005326,0.003196,-0.005326,0.000000,0.000000,0.000000"
"122780,0.331376,-0.391119,0.620122,-0.593856,0.053711,-1.000366,-0.075562,0.002131,0.002131,-0.003196,0.000000,0.000000,0.000000"
"122797,0.330761,-0.391675,0.620139,-0.593815,0.054321,-0.999390,-0.075806,0.015979,0.004261,-0.008522,0.000000,0.000000,0.000000"
"122819,0.330814,-0.391630,0.620596,-0.593337,0.053467,-0.999756,-0.078613,0.019175,0.005326,-0.011718,0.000000,0.000000,0.000000"
"122842,0.330443,-0.391229,0.620851,-0.593541,0.053223,-1.000122,-0.078735,0.017044,0.003196,-0.010653,-52.000000,-12.000000,10.000000"
"122862,0.330827,-0.390883,0.621308,-0.593077,0.051147,-1.000000,-0.078857,0.018109,0.004261,-0.011718,0.000000,0.000000,0.000000"
"122882,0.330948,-0.390786,0.621804,-0.592553,0.052002,-1.000122,-0.078857,0.010653,0.003196,-0.007457,0.000000,0.000000,0.000000"
"122901,0.331057,-0.390648,0.621326,-0.593085,0.051880,-0.999512,-0.078613,0.002131,0.002131,-0.001065,0.000000,0.000000,0.000000"
"122919,0.330960,-0.390755,0.621827,-0.592543,0.051758,-0.999512,-0.078857,-0.004261,0.001065,0.003196,0.000000,0.000000,0.000000"
"122949,0.330583,-0.390354,0.622211,-0.592614,0.051514,-1.000732,-0.079346,-0.014914,0.000000,0.007457,-53.000000,-12.000000,9.000000"
"122966,0.330746,-0.390176,0.621795,-0.593077,0.051758,-0.998901,-0.077759,-0.008522,0.000000,0.006392,0.000000,0.000000,0.000000"
"122982,0.331432,-0.389540,0.621997,-0.592901,0.051270,-1.001099,-0.078003,-0.006392,0.001065,0.004261,0.000000,0.000000,0.000000"
"123004,0.330747,-0.390148,0.621731,-0.593163,0.053101,-0.999634,-0.078003,-0.002131,0.002131,0.001065,0.000000,0.000000,0.000000"
"123028,0.331304,-0.389607,0.621567,-0.593379,0.051147,-0.999756,-0.077148,0.006392,0.003196,-0.002131,0.000000,0.000000,0.000000"
"123046,0.330935,-0.389205,0.621882,-0.593518,0.051025,-1.000854,-0.077637,0.002131,0.002131,-0.001065,-52.000000,-12.000000,10.000000"
"123063,0.330537,-0.389576,0.622220,-0.593143,0.051270,-1.000977,-0.078735,-0.004261,0.002131,0.002131,0.000000,0.000000,0.000000"
"123083,0.329844,-0.390195,0.622109,-0.593238,0.052246,-1.000000,-0.078613,-0.007457,0.002131,0.005326,0.000000,0.000000,0.000000"
"123100,0.330373,-0.389689,0.621987,-0.593404,0.052124,-0.998169,-0.078003,-0.014914,0.000000,0.009587,0.000000,0.000000,0.000000"
"123118,0.329912,-0.390086,0.621534,-0.593875,0.051880,-0.997681,-0.077515,-0.012783,0.000000,0.007457,0.000000,0.000000,0.000000"
"123138,0.329537,-0.389680,0.621876,-0.593991,0.051636,-0.998901,-0.077393,-0.003196,0.003196,0.001065,-54.000000,-13.000000,10.000000"
"123156,0.329869,-0.389378,0.622391,-0.593464,0.052246,-0.999268,-0.078003,0.005326,0.004261,-0.005326,0.000000,0.000000,0.000000"
"123180,0.329722,-0.389480,0.621785,-0.594114,0.054077,-0.998779,-0.075684,0.017044,0.002131,-0.010653,0.000000,0.000000,0.000000"
"123198,0.330342,-0.388910,0.622067,-0.593848,0.051880,-1.000366,-0.077026,0.026632,0.004261,-0.014914,0.000000,0.000000,0.000000"
"123214,0.329677,-0.389509,0.621946,-0.593952,0.052124,-1.001221,-0.077393,0.025566,0.004261,-0.014914,0.000000,0.000000,0.000000"
"123226,0.329848,-0.389380,0.622488,-0.593374,0.050171,-1.000366,-0.080078,0.000000,0.000000,0.000000,0.000000,0.000000,0.000000"
"123252,0.329462,-0.388966,0.622762,-0.593572,0.050049,-0.999390,-0.080078,0.014914,0.004261,-0.009587,-53.000000,-12.000000,8.000000"
"123269,0.329366,-0.389053,0.623212,-0.593096,0.050903,-0.999023,-0.080322,0.010653,0.005326,-0.007457,0.000000,0.000000,0.000000"
"123286,0.328814,-0.389535,0.623343,-0.592948,0.051636,-0.999512,-0.080444,0.015979,0.007457,-0.010653,0.000000,0.000000,0.000000"
"123309,0.329299,-0.389059,0.623040,-0.593309,0.050659,-0.999390,-0.078491,0.021305,0.004261,-0.013848,0.000000,0.000000,0.000000"
"123326,0.329273,-0.389087,0.623451,-0.592874,0.050903,-0.999878,-0.080688,0.025566,0.005326,-0.014914,0.000000,0.000000,0.000000"
"123348,0.328916,-0.388692,0.623666,-0.593105,0.050659,-1.000122,-0.081787,0.024501,0.004261,-0.013848,-52.000000,-12.000000,12.000000"
"123366,0.329066,-0.388562,0.624146,-0.592602,0.049072,-0.999756,-0.082397,0.015979,0.004261,-0.009587,0.000000,0.000000,0.000000"
"123384,0.329096,-0.388537,0.624650,-0.592071,0.047974,-1.000244,-0.084595,0.006392,0.004261,-0.002131,0.000000,0.000000,0.000000"
"123402,0.328761,-0.388853,0.625107,-0.591566,0.049561,-1.001099,-0.084717,-0.023436,0.000000,0.013848,0.000000,0.000000,0.000000"
"123424,0.328887,-0.388718,0.624787,-0.591923,0.050293,-1.000000,-0.080811,-0.037284,-0.003196,0.023436,0.000000,0.000000,0.000000"
"123443,0.328538,-0.388318,0.625201,-0.591942,0.049316,-0.998901,-0.079346,-0.026632,-0.001065,0.017044,-53.000000,-12.000000,12.000000"
"123460,0.328604,-0.388225,0.624741,-0.592452,0.051147,-0.998413,-0.078369,-0.006392,0.001065,0.004261,0.000000,0.000000,0.000000"
"123482,0.328646,-0.388156,0.624234,-0.593009,0.050781,-0.998779,-0.079712,0.003196,0.001065,-0.001065,0.000000,0.000000,0.000000"
"123501,0.328646,-0.388108,0.623635,-0.593670,0.050903,-0.999146,-0.079712,0.024501,0.005326,-0.013848,0.000000,0.000000,0.000000"
"123517,0.329011,-0.387770,0.624055,-0.593247,0.049683,-0.999146,-0.080078,0.028762,0.006392,-0.017044,0.000000,0.000000,0.000000"
"123540,0.328635,-0.387358,0.624260,-0.593509,0.049072,-0.999512,-0.082153,0.031958,0.006392,-0.018109,-51.000000,-12.000000,9.000000"
"123556,0.328579,-0.387418,0.624671,-0.593068,0.048096,-0.999023,-0.083252,0.022371,0.004261,-0.013848,0.000000,0.000000,0.000000"
"123572,0.328508,-0.387490,0.625099,-0.592609,0.048340,-0.997681,-0.082642,0.017044,0.004261,-0.011718,0.000000,0.000000,0.000000"
"123589,0.329163,-0.386866,0.625054,-0.592701,0.048096,-0.999512,-0.081787,0.025566,0.005326,-0.015979,0.000000,0.000000,0.000000"
"123613,0.328958,-0.387056,0.625379,-0.592347,0.046875,-1.000244,-0.084717,0.029827,0.005326,-0.017044,0.000000,0.000000,0.000000"
"123631,0.328563,-0.386631,0.625596,-0.592615,0.048462,-1.000366,-0.084961,0.028762,0.005326,-0.015979,-56.000000,-11.000000,7.000000"
"123648,0.328288,-0.386881,0.625903,-0.592280,0.047363,-0.999023,-0.083984,0.025566,0.005326,-0.014914,0.000000,0.000000,0.000000"
"123667,0.328299,-0.386868,0.626327,-0.591834,0.046753,-0.999023,-0.084351,0.024501,0.006392,-0.015979,0.000000,0.000000,0.000000"
"123684,0.328273,-0.386884,0.626730,-0.591411,0.046387,-0.999268,-0.085083,0.027697,0.007457,-0.019175,0.000000,0.000000,0.000000"
"123699,0.328336,-0.386830,0.627154,-0.590963,0.046021,-0.999390,-0.085693,0.026632,0.005326,-0.017044,0.000000,0.000000,0.000000"
"123721,0.328101,-0.387046,0.627518,-0.590565,0.045532,-0.999390,-0.086670,0.015979,0.004261,-0.009587,0.000000,0.000000,0.000000"
"123738,0.327751,-0.386650,0.627824,-0.590692,0.045410,-1.001221,-0.089844,0.005326,0.002131,-0.002131,-53.000000,-14.000000,11.000000"
"123754,0.327333,-0.387045,0.628202,-0.590264,0.046265,-1.001343,-0.089722,-0.020240,-0.001065,0.012783,0.000000,0.000000,0.000000"
"123773,0.327549,-0.386828,0.627898,-0.590610,0.046265,-0.999146,-0.084106,-0.030893,-0.002131,0.018109,0.000000,0.000000,0.000000"
"123791,0.327626,-0.386728,0.627480,-0.591076,0.047241,-0.998779,-0.084229,-0.015979,0.000000,0.010653,0.000000,0.000000,0.000000"
"123808,0.327757,-0.386578,0.627052,-0.591556,0.046875,-0.999756,-0.084351,-0.008522,0.001065,0.004261,0.000000,0.000000,0.000000"
"123824,0.327777,-0.386522,0.626579,-0.592083,0.046997,-0.999268,-0.084595,-0.006392,0.002131,0.002131,0.000000,0.000000,0.000000"
"123850,0.327432,-0.386117,0.626918,-0.592179,0.045654,-0.999634,-0.086792,0.000000,0.002131,0.003196,-51.000000,-14.000000,10.000000"
"123866,0.327345,-0.386212,0.627458,-0.591593,0.045532,-1.001953,-0.089355,-0.012783,0.000000,0.011718,0.000000,0.000000,0.000000"
"123882,0.327428,-0.386171,0.628192,-0.590795,0.045776,-1.001343,-0.087158,-0.053263,-0.005326,0.030893,0.000000,0.000000,0.000000"
"123901,0.327438,-0.386146,0.627918,-0.591096,0.049194,-0.998291,-0.080322,-0.058590,-0.005326,0.036219,0.000000,0.000000,0.000000"
"123919,0.327519,-0.386058,0.627593,-0.591454,0.048828,-0.998657,-0.078491,-0.040480,-0.004261,0.025566,0.000000,0.000000,0.000000"
"123937,0.327179,-0.385658,0.628003,-0.591467,0.048462,-0.998535,-0.079590,-0.024501,-0.003196,0.017044,-53.000000,-13.000000,11.000000"
"123958,0.326924,-0.385870,0.627563,-0.591938,0.048462,-0.998901,-0.084351,-0.023436,-0.002131,0.017044,0.000000,0.000000,0.000000"
"123976,0.326531,-0.386200,0.627167,-0.592358,0.049561,-0.999878,-0.084473,-0.031958,-0.001065,0.018109,0.000000,0.000000,0.000000"
"123995,0.326560,-0.386139,0.626793,-0.592779,0.050659,-0.999878,-0.079956,-0.030893,0.000000,0.015979,0.000000,0.000000,0.000000"
"124013,0.326705,-0.385980,0.626428,-0.593187,0.049927,-0.999634,-0.078369,-0.023436,-0.001065,0.012783,0.000000,0.000000,0.000000"
"124033,0.326340,-0.385580,0.626814,-0.593240,0.050537,-0.999268,-0.077148,-0.014914,0.000000,0.007457,-52.000000,-14.000000,9.000000"
"124049,0.326420,-0.385486,0.626346,-0.593751,0.050537,-0.999390,-0.078369,-0.004261,-0.001065,0.004261,0.000000,0.000000,0.000000"
"124066,0.326001,-0.385842,0.625885,-0.594237,0.050171,-1.000488,-0.081787,-0.011718,0.000000,0.009587,0.000000,0.000000,0.000000"
"124086,0.325849,-0.385951,0.625453,-0.594703,0.051758,-0.999756,-0.080444,-0.026632,-0.001065,0.014914,0.000000,0.000000,0.000000"
"124103,0.326062,-0.385731,0.625115,-0.595085,0.051880,-0.998535,-0.077026,-0.022371,-0.001065,0.012783,0.000000,0.000000,0.000000"
"124119,0.326238,-0.385531,0.624681,-0.595574,0.052002,-0.999146,-0.076904,-0.001065,0.002131,0.002131,0.000000,0.000000,0.000000"
"124142,0.325882,-0.385136,0.625011,-0.595678,0.052368,-1.000244,-0.077759,0.002131,0.002131,-0.001065,-54.000000,-16.000000,10.000000"
"124159,0.325583,-0.385430,0.625409,-0.595234,0.051880,-1.000488,-0.079590,-0.004261,0.000000,0.004261,0.000000,0.000000,0.000000"
"124175,0.324932,-0.386015,0.625468,-0.595148,0.052124,-1.000488,-0.079956,-0.010653,0.002131,0.007457,0.000000,0.000000,0.000000"
"124193,0.325283,-0.385656,0.625176,-0.595496,0.052490,-1.000244,-0.077759,-0.010653,0.002131,0.006392,0.000000,0.000000,0.000000"
"124213,0.325655,-0.385287,0.624887,-0.595835,0.052246,-0.998901,-0.077759,-0.008522,0.001065,0.002131,0.000000,0.000000,0.000000"
"124230,0.325302,-0.384902,0.625145,-0.596006,0.051758,-0.998291,-0.077148,0.009587,0.002131,-0.006392,-53.000000,-12.000000,13.000000"
"124246,0.325463,-0.384767,0.625629,-0.595497,0.051880,-0.999390,-0.078613,0.014914,0.003196,-0.008522,0.000000,0.000000,0.000000"
"124270,0.325391,-0.384854,0.626106,-0.594979,0.051147,-1.000366,-0.079590,0.003196,0.001065,-0.002131,0.000000,0.000000,0.000000"
"124285,0.325694,-0.384553,0.625755,-0.595376,0.050537,-1.000610,-0.078979,-0.006392,0.000000,0.002131,0.000000,0.000000,0.000000"
"124302,0.325428,-0.384765,0.625227,-0.595939,0.052002,-0.999023,-0.078003,-0.004261,0.001065,0.000000,0.000000,0.000000,0.000000"
"124324,0.325408,-0.384794,0.625689,-0.595446,0.050781,-1.000000,-0.080444,0.012783,0.003196,-0.005326,0.000000,0.000000,0.000000"
"124343,0.325034,-0.384379,0.625986,-0.595606,0.049927,-1.000977,-0.080078,0.010653,0.002131,-0.005326,-53.000000,-13.000000,7.000000"
"124360,0.325109,-0.384274,0.625498,-0.596146,0.051758,-0.999023,-0.077637,0.001065,0.002131,-0.003196,0.000000,0.000000,0.000000"
"124379,0.325265,-0.384092,0.625006,-0.596694,0.051880,-0.999146,-0.076660,0.010653,0.003196,-0.008522,0.000000,0.000000,0.000000"
"124397,0.325501,-0.383882,0.625414,-0.596273,0.050293,-1.000122,-0.078003,0.035154,0.005326,-0.020240,0.000000,0.000000,0.000000"
"124414,0.325363,-0.384008,0.625754,-0.595909,0.049683,-1.000732,-0.082031,0.034088,0.006392,-0.019175,0.000000,0.000000,0.000000"
"124427,0.325363,-0.384008,0.625754,-0.595909,0.000000,0.000000,0.000000,0.023436,0.005326,-0.013848,-52.000000,-12.000000,9.000000"
"124450,0.325234,-0.384142,0.626208,-0.595417,0.049316,-0.999390,-0.083130,0.004261,0.002131,-0.004261,0.000000,0.000000,0.000000"
"124469,0.325770,-0.383656,0.626662,-0.594959,0.049683,-0.999390,-0.079834,0.000000,0.002131,-0.002131,0.000000,0.000000,0.000000"
"124486,0.325367,-0.383992,0.626129,-0.595524,0.050171,-0.999023,-0.079224,0.003196,0.002131,-0.002131,0.000000,0.000000,0.000000"
"124506,0.325261,-0.384094,0.626616,-0.595004,0.049438,-0.999146,-0.081299,0.000000,0.003196,0.002131,0.000000,0.000000,0.000000"
"124525,0.325122,-0.384240,0.627145,-0.594428,0.049316,-1.000366,-0.082275,-0.015979,0.000000,0.009587,0.000000,0.000000,0.000000"
"124542,0.324763,-0.383836,0.627552,-0.594455,0.050049,-1.000488,-0.082275,-0.022371,-0.002131,0.014914,-53.000000,-12.000000,9.000000"
"124561,0.324679,-0.383880,0.627173,-0.594873,0.050049,-1.000366,-0.081299,-0.036219,-0.001065,0.022371,0.000000,0.000000,0.000000"
"124577,0.324806,-0.383741,0.626888,-0.595193,0.050781,-0.999023,-0.077393,-0.045806,-0.003196,0.026632,0.000000,0.000000,0.000000"
"124597,0.324923,-0.383619,0.626555,-0.595559,0.051270,-0.998413,-0.075928,-0.035154,-0.004261,0.024501,0.000000,0.000000,0.000000"
"124619,0.324675,-0.383821,0.626136,-0.596004,0.051392,-0.999634,-0.078735,-0.028762,-0.002131,0.021305,0.000000,0.000000,0.000000"
"124636,0.324331,-0.383433,0.626609,-0.595944,0.052002,-1.000732,-0.080444,-0.042611,-0.003196,0.026632,-53.000000,-12.000000,12.000000"
"124652,0.324179,-0.383558,0.626274,-0.596299,0.052979,-0.999756,-0.077393,-0.051133,-0.005326,0.030893,0.000000,0.000000,0.000000"
"124671,0.324275,-0.383446,0.625969,-0.596638,0.053101,-0.998779,-0.074341,-0.043676,-0.003196,0.026632,0.000000,0.000000,0.000000"
"124690,0.324315,-0.383377,0.625550,-0.597101,0.054565,-0.997192,-0.071289,-0.019175,0.000000,0.010653,0.000000,0.000000,0.000000"
"124707,0.324237,-0.383417,0.625011,-0.597682,0.055054,-0.998291,-0.072876,0.003196,0.001065,-0.002131,0.000000,0.000000,0.000000"
"124724,0.323743,-0.383825,0.624355,-0.598372,0.054810,-0.999512,-0.075073,0.042611,0.006392,-0.023436,0.000000,0.000000,0.000000"
"124747,0.323362,-0.383419,0.624515,-0.598671,0.053345,-1.000854,-0.078125,0.039415,0.006392,-0.023436,-51.000000,-11.000000,9.000000"
"124765,0.323524,-0.383274,0.625000,-0.598171,0.052612,-1.001953,-0.077271,0.013848,0.005326,-0.012783,0.000000,0.000000,0.000000"
"124781,0.323737,-0.383087,0.625537,-0.597613,0.052979,-1.001099,-0.076660,0.002131,0.003196,-0.002131,0.000000,0.000000,0.000000"
"124802,0.323857,-0.382996,0.626089,-0.597028,0.052002,-1.000366,-0.077759,-0.003196,0.001065,0.003196,0.000000,0.000000,0.000000"
"124818,0.323636,-0.383219,0.626613,-0.596455,0.052002,-1.000366,-0.078735,-0.024501,-0.001065,0.018109,0.000000,0.000000,0.000000"
"124835,0.323301,-0.382827,0.627097,-0.596380,0.052368,-1.000488,-0.079102,-0.046872,-0.004261,0.030893,-51.000000,-11.000000,12.000000"
"124857,0.323254,-0.382854,0.626797,-0.596703,0.053711,-0.999756,-0.076416,-0.056459,-0.005326,0.031958,0.000000,0.000000,0.000000"
"124874,0.323299,-0.382784,0.626392,-0.597149,0.055664,-0.998413,-0.070435,-0.022371,-0.001065,0.013848,0.000000,0.000000,0.000000"
"124890,0.323399,-0.382649,0.625904,-0.597694,0.054077,-0.999512,-0.072632,0.005326,0.003196,0.000000,0.000000,0.000000,0.000000"
"124906,0.323503,-0.382509,0.625416,-0.598237,0.053711,-1.000732,-0.073853,0.005326,0.003196,-0.001065,0.000000,0.000000,0.000000"
"124932,0.323146,-0.382111,0.625761,-0.598323,0.054443,-0.999512,-0.074463,-0.005326,0.001065,0.004261,-53.000000,-14.000000,10.000000"
"124950,0.323028,-0.382185,0.625244,-0.598881,0.053345,-1.000366,-0.075195,-0.003196,0.001065,0.003196,0.000000,0.000000,0.000000"
"124965,0.322529,-0.382646,0.625490,-0.598598,0.054565,-1.001221,-0.075073,-0.004261,0.002131,0.004261,0.000000,0.000000,0.000000"
"124990,0.322782,-0.382383,0.625149,-0.598985,0.054810,-1.000366,-0.072754,-0.015979,0.000000,0.008522,0.000000,0.000000,0.000000"
"125007,0.322871,-0.382270,0.624711,-0.599467,0.055542,-0.997314,-0.071289,-0.010653,0.000000,0.005326,0.000000,0.000000,0.000000"
"125025,0.322495,-0.381866,0.624958,-0.599669,0.054443,-1.000000,-0.072876,0.019175,0.004261,-0.011718,-53.000000,-13.000000,9.000000"
"125049,0.322589,-0.381787,0.625318,-0.599293,0.053833,-1.000366,-0.074707,0.043676,0.006392,-0.027697,0.000000,0.000000,0.000000"
"125066,0.322556,-0.381819,0.625645,-0.598950,0.053589,-1.000122,-0.075439,0.045806,0.007457,-0.029827,0.000000,0.000000,0.000000"
"125084,0.322643,-0.381724,0.625964,-0.598630,0.051880,-1.000488,-0.077393,0.056459,0.010653,-0.033023,0.000000,0.000000,0.000000"
"125103,0.322737,-0.381631,0.626337,-0.598248,0.050659,-1.001587,-0.078857,0.042611,0.008522,-0.024501,0.000000,0.000000,0.000000"
"125125,0.322372,-0.381244,0.626702,-0.598309,0.050781,-1.003296,-0.080933,-0.013848,0.000000,0.006392,-52.000000,-12.000000,10.000000"
"125145,0.322371,-0.381287,0.627437,-0.597512,0.051514,-1.001953,-0.078613,-0.057524,-0.006392,0.036219,0.000000,0.000000,0.000000"
"125174,0.322240,-0.381409,0.627385,-0.597559,0.052979,-1.002808,-0.077148,-0.121440,-0.012783,0.075634,0.000000,0.000000,0.000000"
"125194,0.322282,-0.381377,0.627394,-0.597547,0.056519,-0.999756,-0.068848,-0.129962,-0.013848,0.076699,0.000000,0.000000,0.000000"
"125209,0.322328,-0.381332,0.627172,-0.597784,0.058716,-0.995117,-0.062988,-0.070307,-0.008522,0.043676,0.000000,0.000000,0.000000"
"125235,0.322003,-0.380928,0.627547,-0.597823,0.057739,-0.997925,-0.069092,-0.015979,-0.002131,0.015979,-53.000000,-14.000000,12.000000"
"125251,0.321841,-0.381057,0.627137,-0.598258,0.056274,-1.002197,-0.073730,-0.031958,-0.003196,0.020240,0.000000,0.000000,0.000000"
"125269,0.321681,-0.381168,0.626768,-0.598661,0.058716,-1.000244,-0.070801,-0.041545,-0.001065,0.023436,0.000000,0.000000,0.000000"
"125289,0.321663,-0.381153,0.626364,-0.599102,0.059937,-0.998535,-0.065186,-0.026632,-0.001065,0.017044,0.000000,0.000000,0.000000"
"125306,0.321711,-0.381077,0.625935,-0.599573,0.059204,-0.999878,-0.062988,-0.015979,0.000000,0.008522,0.000000,0.000000,0.000000"
"125335,0.321322,-0.380659,0.626220,-0.599749,0.058960,-0.998047,-0.062622,0.009587,0.003196,-0.006392,-52.000000,-13.000000,7.000000"
"125357,0.321149,-0.380764,0.625495,-0.600531,0.059326,-1.000122,-0.069214,0.047937,0.007457,-0.028762,0.000000,0.000000,0.000000"
"125374,0.321121,-0.380728,0.624802,-0.601291,0.057617,-1.000244,-0.069458,0.046872,0.008522,-0.028762,0.000000,0.000000,0.000000"
"125392,0.320993,-0.380790,0.624086,-0.602063,0.058472,-0.999878,-0.068848,0.045806,0.007457,-0.029827,0.000000,0.000000,0.000000"
"125411,0.321655,-0.380155,0.624073,-0.602124,0.057129,-1.000854,-0.069092,0.059655,0.008522,-0.037284,0.000000,0.000000,0.000000"
"125430,0.321278,-0.379766,0.624120,-0.602522,0.056274,-1.001221,-0.070801,0.061785,0.008522,-0.037284,-53.000000,-11.000000,12.000000"
"125453,0.321130,-0.379906,0.624427,-0.602194,0.055176,-1.001465,-0.075562,0.041545,0.006392,-0.022371,0.000000,0.000000,0.000000"
"125475,0.321027,-0.380032,0.625019,-0.601555,0.054443,-1.003296,-0.077148,-0.028762,-0.002131,0.015979,0.000000,0.000000,0.000000"
"125499,0.320874,-0.380204,0.625644,-0.600877,0.055786,-1.000122,-0.072388,-0.042611,-0.003196,0.024501,0.000000,0.000000,0.000000"
"125518,0.320900,-0.380154,0.625256,-0.601299,0.056763,-0.998535,-0.069702,-0.028762,-0.002131,0.018109,0.000000,0.000000,0.000000"
"125537,0.320559,-0.379752,0.625594,-0.601383,0.057007,-0.997803,-0.070679,-0.001065,0.001065,0.005326,-52.000000,-15.000000,10.000000"
"125553,0.320356,-0.379895,0.625020,-0.601998,0.057861,-0.999512,-0.069580,0.009587,0.003196,-0.004261,0.000000,0.000000,0.000000"
"125575,0.320795,-0.379449,0.624656,-0.602424,0.055664,-0.998535,-0.067505,0.026632,0.005326,-0.018109,0.000000,0.000000,0.000000"
"125601,0.320483,-0.379718,0.624782,-0.602289,0.056519,-0.997681,-0.068726,0.068177,0.011718,-0.041545,0.000000,0.000000,0.000000"
"125621,0.320417,-0.379772,0.624979,-0.602086,0.055298,-1.000122,-0.073730,0.077764,0.010653,-0.044741,0.000000,0.000000,0.000000"
"125649,0.320046,-0.379382,0.625162,-0.602340,0.052368,-1.003174,-0.079102,0.033023,0.005326,-0.020240,-52.000000,-12.000000,10.000000"
"125670,0.319952,-0.379486,0.625707,-0.601757,0.054443,-1.000610,-0.077759,-0.014914,0.001065,0.007457,0.000000,0.000000,0.000000"
"125687,0.320024,-0.379432,0.626282,-0.601155,0.053833,-0.999512,-0.074951,-0.010653,0.002131,0.005326,0.000000,0.000000,0.000000"
"125710,0.320332,-0.379116,0.625888,-0.601601,0.055298,-0.999023,-0.071289,0.006392,0.002131,-0.005326,0.000000,0.000000,0.000000"
"125732,0.319945,-0.378711,0.626141,-0.601797,0.054443,-0.999634,-0.073608,0.021305,0.005326,-0.013848,-52.000000,-14.000000,7.000000"
"125752,0.320040,-0.378622,0.626602,-0.601323,0.052490,-1.000366,-0.074829,0.020240,0.006392,-0.011718,0.000000,0.000000,0.000000"
"125770,0.319910,-0.378754,0.627073,-0.600817,0.052856,-1.003052,-0.079956,0.001065,0.002131,0.002131,0.000000,0.000000,0.000000"
"125786,0.319847,-0.378840,0.627702,-0.600141,0.052368,-1.002808,-0.078979,-0.034088,-0.002131,0.021305,0.000000,0.000000,0.000000"
"125807,0.319815,-0.378897,0.628449,-0.599339,0.052856,-1.000854,-0.076782,-0.061785,-0.004261,0.037284,0.000000,0.000000,0.000000"
"125833,0.319465,-0.378500,0.628959,-0.599242,0.054687,-0.998169,-0.073120,-0.052198,-0.004261,0.031958,-52.000000,-12.000000,10.000000"
"125854,0.319452,-0.378478,0.628527,-0.599715,0.055908,-0.999146,-0.070923,-0.019175,0.000000,0.011718,0.000000,0.000000,0.000000"
"125876,0.319434,-0.378463,0.628065,-0.600218,0.055664,-0.998047,-0.071167,-0.012783,0.000000,0.006392,0.000000,0.000000,0.000000"
"125891,0.319450,-0.378411,0.627531,-0.600801,0.055176,-0.999512,-0.071777,0.008522,0.002131,-0.004261,0.000000,0.000000,0.000000"
"125907,0.318878,-0.378929,0.627589,-0.600718,0.055176,-1.000122,-0.075562,0.024501,0.005326,-0.013848,0.000000,0.000000,0.000000"
"125930,0.318491,-0.378523,0.627850,-0.600907,0.054199,-1.000610,-0.075806,0.017044,0.004261,-0.011718,-52.000000,-13.000000,7.000000"
"125954,0.318811,-0.378189,0.627477,-0.601336,0.054810,-1.000610,-0.073242,0.004261,0.003196,-0.005326,0.000000,0.000000,0.000000"
"125979,0.319252,-0.377744,0.627177,-0.601695,0.054321,-0.999390,-0.072632,0.010653,0.004261,-0.008522,0.000000,0.000000,0.000000"
"126000,0.319643,-0.377379,0.627599,-0.601276,0.053467,-0.999878,-0.072754,0.024501,0.006392,-0.017044,0.000000,0.000000,0.000000"
"126026,0.319278,-0.377002,0.627779,-0.601519,0.054199,-1.000610,-0.076904,0.029827,0.007457,-0.019175,-52.000000,-13.000000,13.000000"
"126051,0.319010,-0.377253,0.628126,-0.601140,0.052979,-1.000366,-0.076416,0.015979,0.004261,-0.010653,0.000000,0.000000,0.000000"
"126074,0.318992,-0.377294,0.628670,-0.600556,0.051758,-1.000977,-0.076782,-0.009587,0.000000,0.005326,0.000000,0.000000,0.000000"
"126094,0.318972,-0.377345,0.629305,-0.599869,0.051758,-1.001221,-0.076904,-0.033023,-0.003196,0.021305,0.000000,0.000000,0.000000"
"126120,0.318890,-0.377392,0.628919,-0.600288,0.053711,-0.999023,-0.074097,-0.034088,-0.002131,0.023436,0.000000,0.000000,0.000000"
"126142,0.318505,-0.376974,0.629303,-0.600353,0.054687,-0.999512,-0.073242,-0.017044,-0.001065,0.010653,-53.000000,-11.000000,6.000000"
"126163,0.318306,-0.377131,0.628829,-0.600856,0.054199,-1.000122,-0.074585,-0.015979,-0.001065,0.010653,0.000000,0.000000,0.000000"
"126181,0.318149,-0.377243,0.628415,-0.601302,0.054687,-1.001831,-0.074219,-0.029827,-0.001065,0.019175,0.000000,0.000000,0.000000"
"126202,0.318111,-0.377248,0.628047,-0.601703,0.055176,-1.001709,-0.073242,-0.037284,-0.002131,0.023436,0.000000,0.000000,0.000000"
"126223,0.317746,-0.376840,0.628547,-0.601629,0.056274,-0.999268,-0.071289,-0.046872,-0.003196,0.028762,-53.000000,-12.000000,8.000000"
"126241,0.317695,-0.376847,0.628094,-0.602124,0.057495,-0.996704,-0.068848,-0.015979,0.001065,0.009587,0.000000,0.000000,0.000000"
"126261,0.317709,-0.376787,0.627596,-0.602674,0.057739,-0.998901,-0.067139,0.000000,0.003196,-0.001065,0.000000,0.000000,0.000000"
"126285,0.317867,-0.376595,0.627019,-0.603311,0.055908,-1.000366,-0.070068,0.033023,0.005326,-0.020240,0.000000,0.000000,0.000000"
"126311,0.317632,-0.376822,0.627356,-0.602943,0.055908,-1.000366,-0.073364,0.022371,0.004261,-0.013848,0.000000,0.000000,0.000000"
"126334,0.317245,-0.376423,0.627688,-0.603049,0.054565,-1.001465,-0.075317,-0.004261,0.003196,0.000000,-52.000000,-12.000000,8.000000"
"126359,0.317403,-0.376289,0.628215,-0.602501,0.055664,-0.999390,-0.071899,0.003196,0.003196,-0.004261,0.000000,0.000000,0.000000"
"126383,0.317593,-0.376057,0.627583,-0.603204,0.054932,-0.997314,-0.068237,0.052198,0.008522,-0.033023,0.000000,0.000000,0.000000"
"126408,0.317511,-0.376128,0.627811,-0.602966,0.053711,-0.999268,-0.074707,0.068177,0.009587,-0.039415,0.000000,0.000000,0.000000"
"126435,0.317155,-0.375753,0.627979,-0.603212,0.052612,-1.001587,-0.079224,0.036219,0.007457,-0.022371,-50.000000,-14.000000,12.000000"
"126458,0.317051,-0.375862,0.628418,-0.602741,0.052856,-1.000977,-0.078613,0.010653,0.003196,-0.009587,0.000000,0.000000,0.000000"
"126479,0.316987,-0.375934,0.628871,-0.602257,0.053467,-0.999268,-0.075806,0.010653,0.003196,-0.008522,0.000000,0.000000,0.000000"
"126499,0.317242,-0.375713,0.629350,-0.601761,0.051880,-0.999756,-0.075806,0.017044,0.003196,-0.008522,0.000000,0.000000,0.000000"
"126524,0.316882,-0.375319,0.629607,-0.601928,0.052490,-0.999756,-0.077759,0.012783,0.003196,-0.006392,-51.000000,-12.000000,10.000000"
"126549,0.316704,-0.375489,0.629998,-0.601506,0.052612,-0.999634,-0.077271,0.015979,0.004261,-0.009587,0.000000,0.000000,0.000000"
"126572,0.316671,-0.375530,0.630399,-0.601077,0.051758,-1.000488,-0.078613,0.026632,0.004261,-0.014914,0.000000,0.000000,0.000000"
"126597,0.316807,-0.375424,0.630953,-0.600491,0.049927,-1.003418,-0.080444,-0.004261,0.001065,0.002131,0.000000,0.000000,0.000000"
"126622,0.316470,-0.375033,0.631394,-0.600449,0.051392,-0.999146,-0.079346,-0.034088,-0.002131,0.022371,-52.000000,-13.000000,11.000000"
"126646,0.315839,-0.375609,0.631271,-0.600550,0.052002,-1.001709,-0.079102,-0.055394,-0.005326,0.035154,0.000000,0.000000,0.000000"
"126672,0.315903,-0.375539,0.631074,-0.600768,0.054321,-0.999390,-0.075439,-0.074569,-0.007457,0.045806,0.000000,0.000000,0.000000"
"126693,0.315952,-0.375489,0.630853,-0.601005,0.055054,-0.999268,-0.073975,-0.070307,-0.008522,0.044741,0.000000,0.000000,0.000000"
"126718,0.316000,-0.375428,0.630646,-0.601235,0.055420,-1.000854,-0.073120,-0.072438,-0.006392,0.045806,0.000000,0.000000,0.000000"
"126744,0.315661,-0.375034,0.631256,-0.601019,0.057495,-1.000977,-0.069336,-0.083091,-0.008522,0.050067,-53.000000,-11.000000,11.000000"
"126769,0.315664,-0.374999,0.630882,-0.601431,0.058960,-0.995728,-0.065186,-0.033023,-0.001065,0.018109,0.000000,0.000000,0.000000"
"126794,0.315640,-0.374980,0.630315,-0.602050,0.059204,-0.998901,-0.066406,0.014914,0.003196,-0.008522,0.000000,0.000000,0.000000"
"126820,0.315288,-0.374591,0.630504,-0.602279,0.056396,-1.000488,-0.069214,0.023436,0.004261,-0.012783,-53.000000,-12.000000,13.000000"
"126846,0.315282,-0.374558,0.629991,-0.602839,0.057495,-1.001221,-0.068970,0.001065,0.002131,-0.004261,0.000000,0.000000,0.000000"
"126870,0.315197,-0.374596,0.629456,-0.603418,0.058838,-1.000488,-0.068848,0.003196,0.002131,-0.001065,0.000000,0.000000,0.000000"
"126895,0.315127,-0.374628,0.628968,-0.603943,0.057861,-1.001099,-0.070190,-0.008522,0.000000,0.006392,0.000000,0.000000,0.000000"
"126917,0.315131,-0.374583,0.628476,-0.604481,0.058716,-0.998657,-0.067017,-0.003196,0.002131,0.000000,0.000000,0.000000,0.000000"
"126942,0.314754,-0.374177,0.628717,-0.604678,0.058472,-0.999634,-0.066650,0.020240,0.003196,-0.011718,-50.000000,-13.000000,7.000000"
"126967,0.314205,-0.374690,0.628852,-0.604506,0.057739,-1.000610,-0.071777,0.009587,0.002131,-0.005326,0.000000,0.000000,0.000000"
"126992,0.314834,-0.374109,0.629254,-0.604120,0.056641,-1.001221,-0.072144,-0.006392,0.002131,0.004261,0.000000,0.000000,0.000000"
"127012,0.314643,-0.374250,0.628809,-0.604596,0.057983,-1.001099,-0.070312,-0.024501,0.000000,0.010653,0.000000,0.000000,0.000000"
"127043,0.314318,-0.373882,0.629150,-0.604638,0.057617,-0.999390,-0.066406,-0.015979,-0.002131,0.009587,-51.000000,-13.000000,14.000000"
"127069,0.314524,-0.373655,0.628703,-0.605136,0.057129,-1.000854,-0.068481,0.005326,0.002131,-0.001065,0.000000,0.000000,0.000000"
"127091,0.313835,-0.374281,0.628534,-0.605282,0.058105,-1.002441,-0.070435,-0.011718,0.000000,0.007457,0.000000,0.000000,0.000000"
"127116,0.314210,-0.373914,0.628332,-0.605524,0.058105,-1.000244,-0.068359,-0.031958,-0.002131,0.015979,0.000000,0.000000,0.000000"
"127142,0.313867,-0.373526,0.628683,-0.605576,0.058838,-1.000366,-0.067749,-0.018109,0.000000,0.012783,-53.000000,-11.000000,13.000000"
"127166,0.313934,-0.373434,0.628280,-0.606017,0.059082,-1.000610,-0.067017,-0.021305,-0.001065,0.012783,0.000000,0.000000,0.000000"
"127190,0.313833,-0.373493,0.627813,-0.606517,0.060181,-0.998291,-0.065918,-0.017044,0.000000,0.005326,0.000000,0.000000,0.000000"
"127216,0.313367,-0.373917,0.627957,-0.606348,0.059448,-0.998901,-0.067993,0.031958,0.006392,-0.017044,0.000000,0.000000,0.000000"
"127243,0.312994,-0.373530,0.628204,-0.606523,0.059204,-1.001343,-0.069580,0.018109,0.004261,-0.012783,-53.000000,-15.000000,9.000000"
"127266,0.313674,-0.372893,0.628368,-0.606394,0.057739,-1.000122,-0.068115,0.013848,0.003196,-0.008522,0.000000,0.000000,0.000000"
"127290,0.313919,-0.372676,0.628840,-0.605910,0.057129,-1.000000,-0.068970,0.019175,0.004261,-0.009587,0.000000,0.000000,0.000000"
"127315,0.313721,-0.372868,0.629277,-0.605441,0.057007,-1.002075,-0.070435,0.002131,0.003196,-0.001065,0.000000,0.000000,0.000000"
"127339,0.313365,-0.372482,0.629678,-0.605446,0.057251,-1.000854,-0.067017,-0.024501,-0.001065,0.012783,-53.000000,-14.000000,10.000000"
"127363,0.313393,-0.372423,0.629210,-0.605954,0.058960,-0.998291,-0.065430,-0.007457,0.000000,0.006392,0.000000,0.000000,0.000000"
"127385,0.312862,-0.372876,0.628705,-0.606474,0.059570,-0.999634,-0.068848,0.010653,0.003196,-0.004261,0.000000,0.000000,0.000000"
"127410,0.313520,-0.372261,0.628951,-0.606257,0.058228,-1.001099,-0.068848,0.005326,0.003196,-0.007457,0.000000,0.000000,0.000000"
"127436,0.313123,-0.371870,0.629124,-0.606523,0.058594,-0.998413,-0.066772,0.030893,0.006392,-0.022371,-53.000000,-12.000000,9.000000"
"127462,0.313744,-0.371279,0.629247,-0.606436,0.057007,-1.000610,-0.068481,0.057524,0.008522,-0.035154,0.000000,0.000000,0.000000"
"127485,0.313534,-0.371477,0.629545,-0.606114,0.055176,-1.001343,-0.072632,0.036219,0.006392,-0.025566,0.000000,0.000000,0.000000"
"127510,0.313438,-0.371568,0.629891,-0.605748,0.054565,-0.999634,-0.072266,0.036219,0.006392,-0.022371,0.000000,0.000000,0.000000"
"127537,0.313072,-0.371195,0.630072,-0.605978,0.054565,-1.001831,-0.075439,0.028762,0.006392,-0.019175,-52.000000,-13.000000,12.000000"
"127559,0.312859,-0.371402,0.630496,-0.605520,0.055054,-1.001099,-0.075928,0.003196,0.003196,-0.005326,0.000000,0.000000,0.000000"
"127584,0.312656,-0.371607,0.630955,-0.605021,0.055176,-1.000488,-0.075439,-0.005326,0.001065,0.003196,0.000000,0.000000,0.000000"
"127608,0.312833,-0.371454,0.631550,-0.604402,0.053955,-1.001221,-0.074219,-0.012783,0.002131,0.007457,0.000000,0.000000,0.000000"
"127635,0.312442,-0.371043,0.631846,-0.604548,0.055176,-1.000244,-0.071655,0.005326,0.003196,-0.004261,-51.000000,-12.000000,6.000000"
"127660,0.312277,-0.371147,0.631264,-0.605177,0.055176,-0.999268,-0.072754,0.012783,0.004261,-0.007457,0.000000,0.000000,0.000000"
"127684,0.312200,-0.371235,0.631716,-0.604690,0.053589,-1.000610,-0.077515,0.009587,0.002131,-0.004261,0.000000,0.000000,0.000000"
"127704,0.312187,-0.371265,0.632262,-0.604107,0.053345,-1.000977,-0.077026,-0.009587,0.001065,0.004261,0.000000,0.000000,0.000000"
"127731,0.311820,-0.370864,0.632598,-0.604192,0.055054,-0.999512,-0.072510,-0.007457,0.002131,0.004261,-53.000000,-13.000000,9.000000"
"127757,0.311914,-0.370742,0.632085,-0.604755,0.055176,-0.999756,-0.071289,0.009587,0.002131,-0.005326,0.000000,0.000000,0.000000"
"127778,0.311525,-0.371062,0.631499,-0.605371,0.054810,-0.999512,-0.073975,0.015979,0.003196,-0.009587,0.000000,0.000000,0.000000"
"127804,0.311593,-0.371015,0.631954,-0.604890,0.054321,-1.000000,-0.075684,0.018109,0.003196,-0.011718,0.000000,0.000000,0.000000"
"127828,0.311209,-0.370603,0.632207,-0.605076,0.053467,-1.000854,-0.075317,0.020240,0.005326,-0.011718,-53.000000,-14.000000,6.000000"
"127854,0.311279,-0.370552,0.632616,-0.604643,0.053345,-0.999390,-0.076904,0.029827,0.004261,-0.018109,0.000000,0.000000,0.000000"
"127880,0.311368,-0.370477,0.633046,-0.604194,0.052612,-1.000977,-0.077881,0.025566,0.005326,-0.017044,0.000000,0.000000,0.000000"
"127904,0.311821,-0.370062,0.633492,-0.603747,0.052002,-0.999512,-0.076904,0.013848,0.004261,-0.008522,0.000000,0.000000,0.000000"
"127929,0.311478,-0.369689,0.633758,-0.603872,0.051514,-0.999634,-0.077271,0.004261,0.002131,-0.003196,-53.000000,-13.000000,13.000000"
"127954,0.311750,-0.369451,0.634362,-0.603243,0.051392,-1.001343,-0.077515,-0.014914,0.001065,0.010653,0.000000,0.000000,0.000000"
"127979,0.311213,-0.369923,0.633993,-0.603618,0.051880,-1.000732,-0.077881,-0.021305,-0.001065,0.013848,0.000000,0.000000,0.000000"
"128003,0.311313,-0.369795,0.633564,-0.604096,0.052246,-0.999512,-0.077637,-0.010653,0.001065,0.007457,0.000000,0.000000,0.000000"
"128029,0.310955,-0.369410,0.633892,-0.604173,0.052856,-0.999878,-0.076538,-0.007457,0.001065,0.003196,-52.000000,-13.000000,10.000000"
"128056,0.311113,-0.369230,0.633425,-0.604690,0.052612,-1.000488,-0.075562,0.004261,0.002131,-0.003196,0.000000,0.000000,0.000000"
"128077,0.311177,-0.369185,0.633947,-0.604138,0.052246,-1.001221,-0.076172,0.001065,0.002131,-0.001065,0.000000,0.000000,0.000000"
"128103,0.310974,-0.369394,0.634390,-0.603650,0.051758,-1.000244,-0.076904,-0.002131,0.000000,0.002131,0.000000,0.000000,0.000000"
"128134,0.310599,-0.368996,0.634696,-0.603764,0.053711,-0.999146,-0.077881,0.002131,0.002131,-0.002131,-51.000000,-13.000000,7.000000"
"128156,0.309992,-0.369549,0.634766,-0.603664,0.052246,-0.999512,-0.078979,0.011718,0.003196,-0.009587,0.000000,0.000000,0.000000"
"128181,0.310211,-0.369306,0.634225,-0.604269,0.052734,-0.997681,-0.074707,0.031958,0.005326,-0.020240,0.000000,0.000000,0.000000"
"128206,0.310884,-0.368667,0.634226,-0.604312,0.051392,-0.999146,-0.077148,0.050067,0.007457,-0.029827,0.000000,0.000000,0.000000"
"128234,0.310495,-0.368279,0.634357,-0.604611,0.049927,-1.000366,-0.082397,0.040480,0.008522,-0.026632,-53.000000,-11.000000,10.000000"
"128259,0.310399,-0.368363,0.634772,-0.604174,0.049927,-1.000366,-0.081299,0.019175,0.006392,-0.012783,0.000000,0.000000,0.000000"
"128285,0.310412,-0.368361,0.635255,-0.603660,0.049194,-0.999756,-0.081177,0.008522,0.003196,-0.005326,0.000000,0.000000,0.000000"
"128310,0.310424,-0.368362,0.635780,-0.603101,0.048462,-1.001465,-0.082886,-0.002131,0.002131,0.002131,0.000000,0.000000,0.000000"
"128336,0.310095,-0.367995,0.636101,-0.603154,0.049438,-1.000122,-0.083496,-0.010653,0.001065,0.006392,-52.000000,-13.000000,14.000000"
"128362,0.309440,-0.368592,0.636161,-0.603064,0.050659,-0.999146,-0.081055,-0.009587,0.001065,0.004261,0.000000,0.000000,0.000000"
"128382,0.309922,-0.368126,0.635893,-0.603383,0.050171,-0.998413,-0.080078,0.008522,0.002131,-0.006392,0.000000,0.000000,0.000000"
"128408,0.310493,-0.367602,0.636236,-0.603047,0.048706,-0.999512,-0.080322,0.021305,0.004261,-0.012783,0.000000,0.000000,0.000000"
"128435,0.310121,-0.367195,0.636526,-0.603181,0.048340,-1.000732,-0.083008,0.007457,0.003196,-0.003196,-53.000000,-13.000000,7.000000"
"128457,0.309468,-0.367792,0.636627,-0.603045,0.050659,-1.000122,-0.081787,-0.020240,0.000000,0.010653,0.000000,0.000000,0.000000"
"128482,0.309378,-0.367843,0.636102,-0.603615,0.050903,-0.998169,-0.079712,0.001065,0.001065,0.001065,0.000000,0.000000,0.000000"
"128507,0.309537,-0.367711,0.636631,-0.603056,0.048828,-1.001343,-0.082397,0.002131,0.002131,-0.001065,0.000000,0.000000,0.000000"
"128536,0.309200,-0.367331,0.636979,-0.603093,0.048462,-1.000122,-0.084473,-0.017044,0.001065,0.010653,-53.000000,-12.000000,13.000000"
"128561,0.309865,-0.366735,0.637499,-0.602564,0.048706,-1.000854,-0.081787,-0.044741,-0.003196,0.027697,0.000000,0.000000,0.000000"
"128579,0.309483,-0.367076,0.637235,-0.602832,0.051636,-1.000000,-0.079956,-0.062851,-0.006392,0.038350,0.000000,0.000000,0.000000"
"128605,0.309353,-0.367186,0.636996,-0.603085,0.051514,-0.999390,-0.078491,-0.073503,-0.007457,0.045806,0.000000,0.000000,0.000000"
"128635,0.309033,-0.366793,0.637613,-0.602836,0.052979,-1.000122,-0.075684,-0.080960,-0.008522,0.050067,-53.000000,-14.000000,10.000000"
"128656,0.308967,-0.366839,0.637378,-0.603091,0.055176,-0.999268,-0.072876,-0.072438,-0.006392,0.042611,0.000000,0.000000,0.000000"
"128683,0.308944,-0.366835,0.636979,-0.603526,0.056030,-0.997070,-0.069336,-0.027697,-0.002131,0.018109,0.000000,0.000000,0.000000"
"128708,0.308887,-0.366843,0.636404,-0.604156,0.055664,-0.999634,-0.070801,0.015979,0.004261,-0.009587,0.000000,0.000000,0.000000"
"128736,0.308514,-0.366437,0.636677,-0.604306,0.056030,-0.999878,-0.072388,0.010653,0.003196,-0.005326,-52.000000,-14.000000,7.000000"
"128761,0.308413,-0.366491,0.636208,-0.604818,0.053955,-1.001221,-0.074951,-0.012783,0.001065,0.009587,0.000000,0.000000,0.000000"
"128786,0.308328,-0.366541,0.635778,-0.605284,0.055908,-0.999390,-0.071777,-0.023436,-0.001065,0.013848,0.000000,0.000000,0.000000"
"128812,0.308301,-0.366519,0.635281,-0.605832,0.055664,-0.998535,-0.070312,-0.002131,0.003196,0.001065,0.000000,0.000000,0.000000"
"128838,0.307909,-0.366116,0.635408,-0.606142,0.056030,-0.999146,-0.071045,0.040480,0.008522,-0.024501,-52.000000,-11.000000,9.000000"
"128864,0.307298,-0.366663,0.635398,-0.606132,0.054077,-1.002563,-0.077148,0.033023,0.006392,-0.020240,0.000000,0.000000,0.000000"
"128885,0.307748,-0.366223,0.635201,-0.606375,0.053833,-1.000610,-0.075928,-0.018109,0.000000,0.011718,0.000000,0.000000,0.000000"
"128909,0.307781,-0.366164,0.634852,-0.606759,0.053833,-1.001343,-0.074829,-0.037284,-0.002131,0.023436,0.000000,0.000000,0.000000"
"128937,0.307409,-0.365750,0.635364,-0.606662,0.056641,-0.999390,-0.070679,-0.052198,-0.005326,0.030893,-51.000000,-11.000000,5.000000"
"128961,0.307409,-0.365714,0.634951,-0.607116,0.056763,-0.997559,-0.068237,-0.022371,0.000000,0.014914,0.000000,0.000000,0.000000"
"128986,0.307364,-0.365710,0.634412,-0.607704,0.056030,-0.998901,-0.070435,0.007457,0.003196,-0.002131,0.000000,0.000000,0.000000"
"129011,0.307064,-0.365945,0.633831,-0.608320,0.056396,-1.000000,-0.071533,0.011718,0.003196,-0.007457,0.000000,0.000000,0.000000"
"129038,0.306697,-0.365564,0.634112,-0.608443,0.056396,-1.000610,-0.071289,0.003196,0.001065,-0.004261,-53.000000,-13.000000,9.000000"
"129065,0.306496,-0.365780,0.634610,-0.607894,0.056152,-1.001343,-0.072998,-0.017044,-0.002131,0.012783,0.000000,0.000000,0.000000"
"129086,0.306582,-0.365676,0.634281,-0.608257,0.056274,-1.001587,-0.072754,-0.038350,-0.003196,0.024501,0.000000,0.000000,0.000000"
"129115,0.306226,-0.365264,0.634782,-0.608160,0.056152,-1.001221,-0.071167,-0.051133,-0.004261,0.031958,-52.000000,-11.000000,7.000000"
"129135,0.306149,-0.365308,0.634382,-0.608590,0.057983,-0.998779,-0.069702,-0.030893,-0.002131,0.019175,0.000000,0.000000,0.000000"
"129160,0.305975,-0.365437,0.633937,-0.609064,0.058472,-1.000488,-0.070068,-0.022371,-0.001065,0.013848,0.000000,0.000000,0.000000"
"129187,0.306169,-0.365223,0.633593,-0.609453,0.057861,-0.999756,-0.065674,-0.022371,0.000000,0.012783,0.000000,0.000000,0.000000"
"129214,0.305816,-0.364843,0.633951,-0.609485,0.059570,-0.999268,-0.064453,-0.019175,-0.002131,0.009587,-53.000000,-13.000000,10.000000"
"129238,0.305855,-0.364772,0.633513,-0.609963,0.059204,-1.000977,-0.065796,-0.013848,0.000000,0.009587,0.000000,0.000000,0.000000"
"129265,0.305412,-0.365160,0.633121,-0.610360,0.060303,-1.000977,-0.068115,-0.027697,-0.002131,0.017044,0.000000,0.000000,0.000000"
"129290,0.305325,-0.365193,0.632639,-0.610883,0.060425,-0.999268,-0.066895,-0.009587,0.002131,0.006392,0.000000,0.000000,0.000000"
"129319,0.304968,-0.364826,0.632899,-0.611012,0.059814,-1.000854,-0.064209,0.001065,0.003196,-0.004261,-52.000000,-12.000000,13.000000"
"129343,0.305127,-0.364625,0.632310,-0.611661,0.060547,-0.998291,-0.062256,0.037284,0.006392,-0.021305,0.000000,0.000000,0.000000"
"129368,0.305105,-0.364652,0.632666,-0.611288,0.059692,-1.001099,-0.067505,0.039415,0.006392,-0.022371,0.000000,0.000000,0.000000"
"129390,0.305024,-0.364731,0.633092,-0.610840,0.058838,-1.000244,-0.069946,0.017044,0.005326,-0.011718,0.000000,0.000000,0.000000"
"129418,0.304655,-0.364357,0.633333,-0.610999,0.059570,-0.999512,-0.069092,0.014914,0.003196,-0.011718,-51.000000,-14.000000,9.000000"
"129444,0.305057,-0.363941,0.632861,-0.611534,0.058594,-0.999756,-0.065918,0.045806,0.006392,-0.028762,0.000000,0.000000,0.000000"
"129470,0.305090,-0.363909,0.633118,-0.611271,0.057495,-1.000366,-0.068848,0.067112,0.009587,-0.042611,0.000000,0.000000,0.000000"
"129499,0.305288,-0.363699,0.633218,-0.611193,0.055542,-0.997192,-0.069092,0.110787,0.015979,-0.069242,0.000000,0.000000,0.000000"
"129525,0.304865,-0.363312,0.633076,-0.611781,0.053833,-1.001953,-0.078613,0.110787,0.015979,-0.068177,-53.000000,-11.000000,8.000000"
"129548,0.304874,-0.363295,0.633326,-0.611528,0.050171,-1.002075,-0.080444,0.069242,0.010653,-0.041545,0.000000,0.000000,0.000000"
"129575,0.304926,-0.363268,0.633874,-0.610951,0.048340,-1.004150,-0.083008,-0.005326,0.001065,0.003196,0.000000,0.000000,0.000000"
"129601,0.304963,-0.363257,0.634528,-0.610259,0.051880,-0.997803,-0.077393,-0.033023,-0.001065,0.021305,0.000000,0.000000,0.000000"
"129627,0.304599,-0.362863,0.634877,-0.610313,0.052002,-0.999146,-0.075684,-0.011718,0.001065,0.006392,-52.000000,-12.000000,8.000000"
"129649,0.304519,-0.362930,0.635270,-0.609903,0.053589,-0.998169,-0.076782,0.026632,0.007457,-0.015979,0.000000,0.000000,0.000000"
"129676,0.304485,-0.362955,0.635607,-0.609554,0.051392,-0.999878,-0.080566,0.044741,0.008522,-0.025566,0.000000,0.000000,0.000000"
"129702,0.304465,-0.362979,0.636032,-0.609107,0.050415,-1.001343,-0.082153,0.021305,0.005326,-0.015979,0.000000,0.000000,0.000000"
"129727,0.304106,-0.362610,0.636233,-0.609295,0.050781,-0.998413,-0.078491,0.019175,0.005326,-0.013848,-52.000000,-12.000000,12.000000"
"129754,0.304111,-0.362613,0.636619,-0.608887,0.050537,-1.000244,-0.081299,0.033023,0.005326,-0.019175,0.000000,0.000000,0.000000"
"129781,0.304163,-0.362565,0.637048,-0.608442,0.048340,-1.000977,-0.083374,0.025566,0.006392,-0.014914,0.000000,0.000000,0.000000"
"129808,0.304192,-0.362547,0.637505,-0.607960,0.048828,-1.000244,-0.083252,0.015979,0.004261,-0.010653,0.000000,0.000000,0.000000"
"129836,0.303821,-0.362151,0.637746,-0.608128,0.049072,-0.999878,-0.084717,0.017044,0.003196,-0.009587,-52.000000,-12.000000,7.000000"
"129859,0.303891,-0.362094,0.638285,-0.607561,0.046631,-1.002075,-0.085937,-0.002131,0.003196,0.002131,0.000000,0.000000,0.000000"
"129886,0.303989,-0.362028,0.638890,-0.606915,0.048218,-1.000854,-0.083130,-0.019175,-0.001065,0.012783,0.000000,0.000000,0.000000"
"129913,0.303656,-0.361647,0.639229,-0.606952,0.048950,-0.999023,-0.082397,-0.017044,-0.001065,0.011718,-54.000000,-11.000000,12.000000"
"129939,0.303638,-0.361673,0.639827,-0.606315,0.048828,-1.000854,-0.084106,-0.022371,0.001065,0.014914,0.000000,0.000000,0.000000"
"129963,0.303769,-0.361577,0.640495,-0.605601,0.049072,-1.001221,-0.082397,-0.034088,-0.002131,0.022371,0.000000,0.000000,0.000000"
"129988,0.303561,-0.361743,0.640088,-0.606036,0.050659,-0.998901,-0.080688,-0.031958,-0.002131,0.019175,0.000000,0.000000,0.000000"
"130015,0.303260,-0.361380,0.640473,-0.605996,0.050293,-0.999756,-0.079956,-0.029827,-0.002131,0.019175,-52.000000,-14.000000,15.000000"
"130036,0.303381,-0.361246,0.640126,-0.606383,0.050537,-0.999023,-0.078491,-0.030893,-0.002131,0.017044,0.000000,0.000000,0.000000"
"130061,0.303111,-0.361460,0.639677,-0.606864,0.052002,-0.999512,-0.079224,-0.020240,0.000000,0.012783,0.000000,0.000000,0.000000"
"130088,0.303290,-0.361265,0.639300,-0.607288,0.051636,-1.000244,-0.076172,-0.015979,0.000000,0.010653,0.000000,0.000000,0.000000"
"130118,0.302944,-0.360891,0.639622,-0.607344,0.052002,-0.999146,-0.078857,-0.006392,0.001065,0.002131,-52.000000,-15.000000,10.000000"
"130146,0.302854,-0.360940,0.639115,-0.607893,0.052612,-1.000488,-0.076904,-0.004261,0.001065,0.001065,0.000000,0.000000,0.000000"
"130172,0.302224,-0.361519,0.639213,-0.607760,0.052124,-1.000854,-0.078003,-0.007457,0.001065,0.003196,0.000000,0.000000,0.000000"
"130195,0.302571,-0.361168,0.638866,-0.608161,0.052490,-0.999390,-0.076172,0.001065,0.002131,-0.002131,0.000000,0.000000,0.000000"
"130228,0.302220,-0.360787,0.639093,-0.608322,0.051514,-0.999268,-0.078003,0.012783,0.003196,-0.007457,-52.000000,-12.000000,11.000000"
"130252,0.302545,-0.360504,0.639660,-0.607732,0.051758,-1.000854,-0.078369,-0.009587,0.001065,0.004261,0.000000,0.000000,0.000000"
"130281,0.302594,-0.360428,0.639221,-0.608215,0.052002,-0.999756,-0.076904,-0.012783,0.000000,0.008522,0.000000,0.000000,0.000000"
"130307,0.302272,-0.360694,0.638739,-0.608723,0.052490,-0.999878,-0.076904,-0.010653,0.000000,0.008522,0.000000,0.000000,0.000000"
"130337,0.301913,-0.360298,0.639028,-0.608832,0.053467,-0.999878,-0.077515,0.002131,0.003196,0.000000,-53.000000,-13.000000,9.000000"
"130366,0.302291,-0.359962,0.639545,-0.608301,0.051758,-1.000000,-0.077393,0.002131,0.002131,0.000000,0.000000,0.000000,0.000000"
"130395,0.302207,-0.360003,0.639062,-0.608826,0.051880,-1.000488,-0.077026,-0.009587,0.001065,0.005326,0.000000,0.000000,0.000000"
"130424,0.301852,-0.359619,0.639349,-0.608928,0.052612,-0.999512,-0.075073,-0.006392,0.001065,0.003196,-53.000000,-10.000000,11.000000"
"130440,0.301259,-0.360130,0.638901,-0.609389,0.052856,-0.998779,-0.076294,0.006392,0.003196,-0.004261,0.000000,0.000000,0.000000"
"130469,0.301447,-0.359969,0.639405,-0.608862,0.051880,-0.999023,-0.078247,0.008522,0.003196,-0.005326,0.000000,0.000000,0.000000"
"130498,0.301469,-0.359963,0.639916,-0.608317,0.052124,-1.000000,-0.078857,0.001065,0.002131,-0.001065,0.000000,0.000000,0.000000"
"130525,0.301140,-0.359587,0.640284,-0.608316,0.051636,-1.001465,-0.078369,-0.023436,-0.001065,0.013848,-53.000000,-13.000000,12.000000"
"130553,0.301540,-0.359203,0.640110,-0.608528,0.051758,-1.000854,-0.077881,-0.037284,-0.003196,0.024501,0.000000,0.000000,0.000000"
"130579,0.301536,-0.359196,0.639765,-0.608897,0.052734,-1.000732,-0.075562,-0.041545,-0.005326,0.027697,0.000000,0.000000,0.000000"
"130608,0.301289,-0.359411,0.639480,-0.609191,0.053833,-1.001099,-0.075562,-0.061785,-0.006392,0.039415,0.000000,0.000000,0.000000"
"130638,0.300965,-0.359015,0.640058,-0.608977,0.054687,-0.999756,-0.072144,-0.073503,-0.007457,0.044741,-52.000000,-13.000000,9.000000"
"130662,0.300892,-0.359047,0.639573,-0.609504,0.058594,-0.996216,-0.067017,-0.008522,0.001065,0.003196,0.000000,0.000000,0.000000"
"130691,0.300744,-0.359120,0.638825,-0.610319,0.058716,-0.996826,-0.068604,0.057524,0.009587,-0.033023,0.000000,0.000000,0.000000"
"130718,0.300389,-0.358771,0.638907,-0.610612,0.055298,-1.001099,-0.075195,0.043676,0.008522,-0.028762,-49.000000,-12.000000,14.000000"
"130747,0.301039,-0.358160,0.639195,-0.610350,0.053833,-1.001465,-0.074219,0.004261,0.004261,-0.005326,0.000000,0.000000,0.000000"
"130775,0.300805,-0.358346,0.638697,-0.610878,0.055176,-0.999146,-0.071655,-0.008522,0.000000,0.006392,0.000000,0.000000,0.000000"
"130799,0.300687,-0.358417,0.638136,-0.611479,0.056030,-0.998535,-0.069824,0.008522,0.002131,-0.005326,0.000000,0.000000,0.000000"
"130829,0.300339,-0.358069,0.638195,-0.611793,0.055786,-0.997559,-0.073242,0.054328,0.009587,-0.034088,-50.000000,-15.000000,14.000000"
"130852,0.300207,-0.358174,0.638398,-0.611584,0.053101,-1.000610,-0.078003,0.071373,0.011718,-0.042611,0.000000,0.000000,0.000000"
"130881,0.300232,-0.358156,0.638829,-0.611132,0.051147,-1.002686,-0.078857,0.022371,0.005326,-0.014914,0.000000,0.000000,0.000000"
"130908,0.299895,-0.357777,0.639122,-0.611214,0.051025,-1.000854,-0.078003,-0.003196,0.001065,0.003196,-52.000000,-12.000000,11.000000"
"130929,0.299848,-0.357848,0.639731,-0.610557,0.052490,-1.000977,-0.078491,-0.028762,-0.002131,0.020240,0.000000,0.000000,0.000000"
"130958,0.299261,-0.358399,0.639981,-0.610260,0.054199,-0.998047,-0.075439,-0.034088,-0.002131,0.020240,0.000000,0.000000,0.000000"
"130985,0.299796,-0.357904,0.640412,-0.609836,0.053223,-0.999390,-0.076660,0.005326,0.004261,-0.004261,0.000000,0.000000,0.000000"
"131014,0.299454,-0.357545,0.640550,-0.610069,0.053833,-0.999146,-0.075317,0.033023,0.004261,-0.020240,-53.000000,-14.000000,13.000000"
"131040,0.299810,-0.357223,0.641012,-0.609598,0.049561,-1.002075,-0.078735,0.017044,0.004261,-0.008522,0.000000,0.000000,0.000000"
"131066,0.299581,-0.357453,0.641517,-0.609044,0.051636,-1.002686,-0.080811,-0.021305,-0.001065,0.017044,0.000000,0.000000,0.000000"
"131090,0.299169,-0.357805,0.641173,-0.609402,0.053467,-0.999756,-0.077881,-0.042611,-0.002131,0.022371,0.000000,0.000000,0.000000"
"131121,0.298812,-0.357427,0.641426,-0.609533,0.054199,-0.997681,-0.071045,0.006392,0.002131,-0.006392,-53.000000,-14.000000,10.000000"
"131150,0.298993,-0.357204,0.640812,-0.610221,0.052612,-0.999390,-0.078369,0.047937,0.008522,-0.027697,0.000000,0.000000,0.000000"
"131177,0.299116,-0.357096,0.641244,-0.609770,0.050781,-1.001465,-0.079590,0.025566,0.005326,-0.015979,0.000000,0.000000,0.000000"
"131204,0.299028,-0.357184,0.641722,-0.609258,0.051392,-1.002075,-0.080444,0.002131,0.003196,-0.002131,0.000000,0.000000,0.000000"
"131229,0.298674,-0.356794,0.641959,-0.609410,0.050659,-0.998901,-0.075439,0.007457,0.004261,-0.004261,-52.000000,-11.000000,11.000000"
"131257,0.298843,-0.356647,0.642417,-0.608930,0.050781,-1.000122,-0.080078,0.020240,0.004261,-0.010653,0.000000,0.000000,0.000000"
"131286,0.299331,-0.356164,0.642158,-0.609247,0.050293,-0.998535,-0.079712,0.010653,0.004261,-0.009587,0.000000,0.000000,0.000000"
"131316,0.298942,-0.355760,0.642289,-0.609535,0.050781,-0.998535,-0.077393,0.042611,0.006392,-0.024501,-52.000000,-12.000000,6.000000"
"131345,0.298874,-0.355818,0.642687,-0.609114,0.048584,-1.001831,-0.082397,0.025566,0.006392,-0.013848,0.000000,0.000000,0.000000"
"131366,0.298865,-0.355854,0.643357,-0.608391,0.047974,-1.001831,-0.083496,-0.042611,-0.003196,0.025566,0.000000,0.000000,0.000000"
"131395,0.298831,-0.355868,0.643086,-0.608686,0.049805,-1.000122,-0.079590,-0.061785,-0.005326,0.036219,0.000000,0.000000,0.000000"
"131423,0.298504,-0.355479,0.643497,-0.608639,0.051514,-0.998901,-0.076782,-0.036219,-0.003196,0.023436,-54.000000,-12.000000,11.000000"
"131452,0.298279,-0.355658,0.643006,-0.609164,0.053833,-0.998169,-0.076416,-0.010653,0.000000,0.005326,0.000000,0.000000,0.000000"
"131477,0.298226,-0.355660,0.642377,-0.609852,0.050903,-0.998535,-0.078369,0.030893,0.005326,-0.015979,0.000000,0.000000,0.000000"
"131505,0.297754,-0.356100,0.642682,-0.609504,0.051514,-1.001831,-0.079712,-0.010653,0.001065,0.004261,0.000000,0.000000,0.000000"
"131534,0.297430,-0.355723,0.643055,-0.609488,0.051392,-1.000122,-0.078003,-0.027697,-0.001065,0.017044,-51.000000,-12.000000,12.000000"
"131558,0.297656,-0.355494,0.642732,-0.609852,0.051392,-0.999634,-0.077026,-0.025566,-0.002131,0.015979,0.000000,0.000000,0.000000"
"131586,0.297714,-0.355409,0.642255,-0.610376,0.052246,-0.998413,-0.076050,-0.002131,0.001065,0.002131,0.000000,0.000000,0.000000"
"131613,0.297345,-0.355016,0.642548,-0.610476,0.051392,-1.000732,-0.078125,-0.002131,0.002131,0.000000,-53.000000,-12.000000,8.000000"
"131642,0.297175,-0.355142,0.642008,-0.611055,0.052856,-0.999512,-0.076660,0.002131,0.001065,-0.002131,0.000000,0.000000,0.000000"
"131671,0.297688,-0.354647,0.641821,-0.611288,0.051880,-1.001099,-0.075928,-0.005326,0.001065,0.002131,0.000000,0.000000,0.000000"
"131700,0.297532,-0.354751,0.641285,-0.611866,0.052856,-0.998047,-0.074097,0.002131,0.002131,-0.001065,0.000000,0.000000,0.000000"
"131729,0.297164,-0.354351,0.641510,-0.612040,0.052612,-1.000000,-0.078857,0.011718,0.002131,-0.004261,-53.000000,-9.000000,8.000000"
"131750,0.297180,-0.354358,0.642100,-0.611410,0.051880,-0.999023,-0.075806,-0.021305,0.000000,0.006392,0.000000,0.000000,0.000000"
"131779,0.297206,-0.354285,0.641506,-0.612062,0.053711,-0.996948,-0.070801,0.026632,0.005326,-0.014914,0.000000,0.000000,0.000000"
"131809,0.296856,-0.353920,0.641588,-0.612357,0.051758,-1.000854,-0.080811,0.047937,0.007457,-0.026632,-51.000000,-12.000000,12.000000"
"131837,0.296727,-0.354050,0.642081,-0.611828,0.050659,-1.001343,-0.083740,-0.005326,0.002131,0.002131,0.000000,0.000000,0.000000"
"131861,0.296441,-0.354323,0.642486,-0.611383,0.052612,-0.999023,-0.077881,-0.002131,0.002131,0.000000,0.000000,0.000000,0.000000"
"131886,0.296906,-0.353907,0.642953,-0.610907,0.051514,-1.000000,-0.077393,0.005326,0.002131,-0.004261,0.000000,0.000000,0.000000"
"131915,0.296563,-0.353539,0.643132,-0.611099,0.051880,-1.000000,-0.078369,0.021305,0.003196,-0.011718,-53.000000,-12.000000,12.000000"
"131943,0.296394,-0.353705,0.643587,-0.610605,0.050049,-1.001587,-0.084473,0.000000,0.002131,0.001065,0.000000,0.000000,0.000000"
"131963,0.296189,-0.353911,0.644100,-0.610045,0.050537,-1.000122,-0.080688,-0.020240,0.000000,0.007457,0.000000,0.000000,0.000000"
"131991,0.296271,-0.353794,0.643609,-0.610591,0.051392,-0.998779,-0.077026,0.004261,0.003196,-0.003196,0.000000,0.000000,0.000000"
"132020,0.295904,-0.353404,0.643839,-0.610752,0.049683,-1.000732,-0.081909,0.015979,0.004261,-0.009587,-53.000000,-13.000000,8.000000"
"132045,0.295797,-0.353509,0.644314,-0.610242,0.050171,-0.999878,-0.081665,0.001065,0.003196,-0.002131,0.000000,0.000000,0.000000"
"132067,0.296352,-0.353005,0.644764,-0.609789,0.049438,-1.000000,-0.080811,-0.003196,0.002131,0.001065,0.000000,0.000000,0.000000"
"132091,0.296132,-0.353171,0.644282,-0.610309,0.051025,-1.000854,-0.078857,-0.011718,0.001065,0.007457,0.000000,0.000000,0.000000"
"132117,0.295759,-0.352768,0.644601,-0.610386,0.049561,-0.999146,-0.080444,-0.006392,0.001065,0.003196,-53.000000,-12.000000,6.000000"
"132140,0.295252,-0.353246,0.644821,-0.610122,0.050171,-1.000122,-0.081055,0.000000,0.000000,0.002131,0.000000,0.000000,0.000000"
"132165,0.295385,-0.353087,0.644377,-0.610619,0.050781,-1.001099,-0.080444,-0.003196,0.002131,0.002131,0.000000,0.000000,0.000000"
"132188,0.295388,-0.353036,0.643851,-0.611201,0.051392,-0.998535,-0.078369,0.007457,0.004261,-0.006392,0.000000,0.000000,0.000000"
"132219,0.295019,-0.352646,0.644018,-0.611429,0.049805,-0.998535,-0.078003,0.028762,0.006392,-0.017044,-52.000000,-12.000000,9.000000"
"132239,0.295132,-0.352558,0.644464,-0.610955,0.048340,-1.001099,-0.082642,0.020240,0.003196,-0.013848,0.000000,0.000000,0.000000"
"132267,0.295212,-0.352500,0.644962,-0.610424,0.048584,-1.000732,-0.082642,0.006392,0.002131,-0.004261,0.000000,0.000000,0.000000"
"132295,0.295064,-0.352641,0.645411,-0.609939,0.049561,-1.000610,-0.082275,0.004261,0.003196,0.000000,0.000000,0.000000,0.000000"
"132322,0.294731,-0.352260,0.645748,-0.609964,0.049194,-1.002563,-0.081909,-0.019175,0.000000,0.011718,-51.000000,-11.000000,11.000000"
"132350,0.295178,-0.351841,0.645636,-0.610108,0.049072,-0.999878,-0.082031,-0.045806,-0.004261,0.027697,0.000000,0.000000,0.000000"
"132379,0.295063,-0.351934,0.645302,-0.610464,0.049683,-0.999390,-0.079956,-0.049002,-0.005326,0.028762,0.000000,0.000000,0.000000"
"132399,0.294909,-0.352048,0.644784,-0.611019,0.052002,-0.995605,-0.077026,-0.002131,0.000000,0.003196,0.000000,0.000000,0.000000"
"132430,0.294537,-0.351646,0.644968,-0.611236,0.051514,-1.000122,-0.080444,0.027697,0.005326,-0.013848,-52.000000,-12.000000,7.000000"
"132450,0.294254,-0.351916,0.645370,-0.610792,0.050415,-1.001221,-0.081665,-0.001065,0.002131,-0.001065,0.000000,0.000000,0.000000"
"132475,0.294556,-0.351609,0.645068,-0.611142,0.049927,-1.000732,-0.078491,-0.019175,0.000000,0.011718,0.000000,0.000000,0.000000"
"132502,0.294252,-0.351247,0.645505,-0.611036,0.050293,-1.000488,-0.078491,-0.049002,-0.005326,0.028762,-55.000000,-12.000000,14.000000"
"132527,0.294174,-0.351314,0.645213,-0.611343,0.051880,-1.000854,-0.077515,-0.058590,-0.007457,0.036219,0.000000,0.000000,0.000000"
"132555,0.294104,-0.351353,0.644812,-0.611777,0.053955,-0.998657,-0.074097,-0.028762,-0.002131,0.020240,0.000000,0.000000,0.000000"
"132583,0.293687,-0.351710,0.644401,-0.612205,0.053223,-1.000854,-0.077759,-0.023436,-0.001065,0.013848,0.000000,0.000000,0.000000"
"132611,0.293364,-0.351340,0.644753,-0.612202,0.052979,-1.000122,-0.075439,-0.023436,-0.002131,0.013848,-54.000000,-13.000000,12.000000"
"132637,0.293351,-0.351315,0.644280,-0.612720,0.055420,-0.999390,-0.072021,-0.007457,0.001065,0.005326,0.000000,0.000000,0.000000"
"132657,0.293461,-0.351178,0.643855,-0.613193,0.053711,-0.999512,-0.072998,-0.010653,0.001065,0.005326,0.000000,0.000000,0.000000"
"132682,0.293480,-0.351119,0.643382,-0.613714,0.054443,-0.999146,-0.072510,-0.005326,0.002131,0.003196,0.000000,0.000000,0.000000"
"132708,0.293197,-0.350778,0.643706,-0.613704,0.055176,-1.002197,-0.075073,-0.018109,-0.001065,0.012783,-50.000000,-15.000000,16.000000"
"132736,0.293020,-0.350906,0.643252,-0.614191,0.055176,-0.997314,-0.072754,-0.019175,0.000000,0.010653,0.000000,0.000000,0.000000"
"132760,0.292851,-0.351019,0.642685,-0.614801,0.056641,-0.998901,-0.071289,0.009587,0.003196,-0.006392,0.000000,0.000000,0.000000"
"132785,0.292913,-0.350907,0.642097,-0.615449,0.055908,-1.000000,-0.071045,0.027697,0.006392,-0.019175,0.000000,0.000000,0.000000"
"132811,0.292545,-0.350525,0.642229,-0.615704,0.054199,-0.999756,-0.074707,0.037284,0.006392,-0.021305,-52.000000,-12.000000,9.000000"
"132837,0.292540,-0.350548,0.642779,-0.615119,0.052856,-1.002075,-0.078125,-0.010653,0.001065,0.005326,0.000000,0.000000,0.000000"
"132857,0.292634,-0.350491,0.643425,-0.614431,0.054077,-0.999878,-0.074341,-0.030893,-0.002131,0.018109,0.000000,0.000000,0.000000"
"132882,0.292218,-0.350851,0.643048,-0.614819,0.056152,-0.999756,-0.073120,-0.031958,-0.002131,0.019175,0.000000,0.000000,0.000000"
"132907,0.291869,-0.350460,0.643358,-0.614883,0.055298,-0.999756,-0.072998,-0.010653,0.000000,0.007457,-53.000000,-11.000000,9.000000"
"132931,0.291864,-0.350486,0.643926,-0.614276,0.054810,-0.999756,-0.075562,-0.015979,0.000000,0.008522,0.000000,0.000000,0.000000"
"132956,0.292015,-0.350315,0.643590,-0.614653,0.055664,-0.999756,-0.071045,-0.029827,-0.001065,0.019175,0.000000,0.000000,0.000000"
"132984,0.292007,-0.350293,0.643232,-0.615044,0.056519,-1.000977,-0.071411,-0.037284,-0.002131,0.022371,0.000000,0.000000,0.000000"
"133010,0.291689,-0.349907,0.643717,-0.614907,0.057007,-1.000488,-0.071899,-0.051133,-0.005326,0.031958,-52.000000,-14.000000,9.000000"
"133037,0.291654,-0.349914,0.643382,-0.615271,0.059082,-0.999146,-0.066895,-0.044741,-0.003196,0.026632,0.000000,0.000000,0.000000"
"133061,0.291658,-0.349887,0.642958,-0.615727,0.058838,-0.998657,-0.066162,-0.020240,-0.002131,0.013848,0.000000,0.000000,0.000000"
"133080,0.291662,-0.349850,0.642502,-0.616222,0.058105,-1.000732,-0.067627,-0.011718,0.000000,0.006392,0.000000,0.000000,0.000000"
"133106,0.291291,-0.349452,0.642850,-0.616260,0.057983,-1.000732,-0.069702,-0.013848,0.001065,0.007457,-52.000000,-13.000000,6.000000"
"133131,0.291226,-0.349479,0.642387,-0.616759,0.059448,-1.000610,-0.066284,-0.013848,0.000000,0.007457,0.000000,0.000000,0.000000"
"133159,0.291193,-0.349469,0.641920,-0.617266,0.058960,-1.001221,-0.066772,-0.010653,0.001065,0.006392,0.000000,0.000000,0.000000"
"133184,0.291292,-0.349339,0.641486,-0.617743,0.058350,-1.000244,-0.066650,-0.009587,0.001065,0.006392,0.000000,0.000000,0.000000"
"133209,0.290965,-0.348993,0.641726,-0.617844,0.059814,-0.998779,-0.064331,0.001065,0.001065,-0.002131,-52.000000,-13.000000,14.000000"
"133233,0.290740,-0.349143,0.641015,-0.618603,0.059082,-0.998779,-0.066284,0.045806,0.007457,-0.025566,0.000000,0.000000,0.000000"
"133257,0.290767,-0.349123,0.641395,-0.618207,0.056641,-1.002197,-0.070923,0.035154,0.006392,-0.022371,0.000000,0.000000,0.000000"
"133283,0.290745,-0.349160,0.641895,-0.617677,0.057251,-1.002197,-0.070923,0.001065,0.002131,-0.002131,0.000000,0.000000,0.000000"
"133309,0.290400,-0.348775,0.642183,-0.617758,0.057373,-1.001465,-0.069580,-0.004261,0.002131,0.004261,-53.000000,-12.000000,10.000000"
"133330,0.290487,-0.348657,0.641739,-0.618245,0.058716,-0.999146,-0.066040,-0.008522,0.001065,0.003196,0.000000,0.000000,0.000000"
"133355,0.289943,-0.349124,0.641239,-0.618756,0.059082,-0.998657,-0.066772,0.010653,0.003196,-0.006392,0.000000,0.000000,0.000000"
"133377,0.290242,-0.348854,0.641647,-0.618344,0.057739,-0.999512,-0.068237,0.031958,0.005326,-0.018109,0.000000,0.000000,0.000000"
"133405,0.289875,-0.348473,0.641807,-0.618565,0.057861,-1.001465,-0.072632,0.028762,0.007457,-0.015979,-53.000000,-12.000000,10.000000"
"133428,0.289783,-0.348572,0.642277,-0.618064,0.056885,-1.001587,-0.074585,0.003196,0.003196,-0.007457,0.000000,0.000000,0.000000"
"133457,0.290217,-0.348126,0.641924,-0.618479,0.057373,-0.999512,-0.065796,0.022371,0.005326,-0.014914,0.000000,0.000000,0.000000"
"133482,0.290532,-0.347840,0.642268,-0.618135,0.054932,-1.000488,-0.068970,0.046872,0.006392,-0.027697,0.000000,0.000000,0.000000"
"133506,0.290198,-0.347491,0.642366,-0.618385,0.054077,-1.000610,-0.075195,0.040480,0.006392,-0.022371,-53.000000,-13.000000,14.000000"
"133530,0.290097,-0.347599,0.642785,-0.617936,0.054810,-1.000610,-0.075684,0.015979,0.003196,-0.009587,0.000000,0.000000,0.000000"
"133550,0.290021,-0.347693,0.643255,-0.617431,0.054077,-1.000732,-0.077271,0.004261,0.001065,-0.003196,0.000000,0.000000,0.000000"
"133579,0.289959,-0.347769,0.643784,-0.616865,0.054565,-1.001709,-0.075439,-0.009587,0.001065,0.004261,0.000000,0.000000,0.000000"
"133605,0.289615,-0.347398,0.644069,-0.616938,0.054810,-0.999268,-0.072388,-0.005326,0.001065,0.002131,-51.000000,-12.000000,10.000000"
"133629,0.289938,-0.347098,0.644554,-0.616448,0.055176,-0.999390,-0.071655,0.011718,0.005326,-0.006392,0.000000,0.000000,0.000000"
"133654,0.289787,-0.347239,0.644935,-0.616042,0.054077,-1.001465,-0.074585,0.022371,0.005326,-0.010653,0.000000,0.000000,0.000000"
"133675,0.289792,-0.347251,0.645420,-0.615525,0.052856,-1.000610,-0.076294,0.006392,0.002131,-0.003196,0.000000,0.000000,0.000000"
"133701,0.289088,-0.347881,0.645310,-0.615615,0.054565,-1.000122,-0.074951,0.003196,0.003196,-0.002131,0.000000,0.000000,0.000000"
"133727,0.288750,-0.347514,0.645584,-0.615694,0.054932,-1.002075,-0.074097,-0.007457,0.001065,0.003196,-53.000000,-11.000000,12.000000"
"133749,0.289104,-0.347154,0.645218,-0.616114,0.054321,-0.998779,-0.072144,0.006392,0.002131,-0.001065,0.000000,0.000000,0.000000"
"133774,0.289071,-0.347205,0.645710,-0.615585,0.053711,-1.001587,-0.077515,0.002131,0.001065,0.002131,0.000000,0.000000,0.000000"
"133796,0.289585,-0.346715,0.645617,-0.615718,0.053589,-1.000488,-0.074219,-0.033023,-0.002131,0.020240,0.000000,0.000000,0.000000"
"133822,0.289234,-0.346308,0.646004,-0.615705,0.054810,-1.000610,-0.072754,-0.028762,-0.002131,0.019175,-54.000000,-11.000000,7.000000"
"133847,0.288941,-0.346556,0.645656,-0.616069,0.055176,-1.001343,-0.073364,-0.045806,-0.003196,0.025566,0.000000,0.000000,0.000000"
"133874,0.288736,-0.346721,0.645285,-0.616461,0.056641,-0.998901,-0.071777,-0.039415,-0.003196,0.025566,0.000000,0.000000,0.000000"
"133894,0.288403,-0.347001,0.644903,-0.616858,0.057495,-1.000366,-0.072021,-0.035154,-0.002131,0.021305,0.000000,0.000000,0.000000"
"133921,0.288043,-0.346610,0.645227,-0.616907,0.058594,-0.997681,-0.068970,-0.013848,0.001065,0.007457,-52.000000,-12.000000,8.000000"
"133946,0.288143,-0.346472,0.644757,-0.617430,0.057251,-1.001099,-0.068848,0.001065,0.003196,-0.001065,0.000000,0.000000,0.000000"
"133969,0.288044,-0.346524,0.644265,-0.617960,0.057129,-0.999756,-0.070923,-0.006392,0.001065,0.007457,0.000000,0.000000,0.000000"
"133995,0.288747,-0.345874,0.644502,-0.617748,0.056519,-1.001099,-0.070435,-0.021305,-0.001065,0.012783,0.000000,0.000000,0.000000"
"134021,0.288436,-0.345513,0.644906,-0.617675,0.058472,-0.999390,-0.067749,-0.034088,-0.002131,0.020240,-53.000000,-16.000000,12.000000"
"134046,0.288155,-0.345743,0.644478,-0.618123,0.059448,-0.999390,-0.067383,-0.025566,-0.001065,0.014914,0.000000,0.000000,0.000000"
"134074,0.288017,-0.345834,0.643904,-0.618735,0.059326,-0.998779,-0.065918,0.011718,0.002131,-0.007457,0.000000,0.000000,0.000000"
"134094,0.287294,-0.346468,0.643633,-0.618999,0.058716,-1.000000,-0.069214,0.044741,0.008522,-0.026632,0.000000,0.000000,0.000000"
"134122,0.286939,-0.346115,0.643718,-0.619271,0.056885,-1.000732,-0.070068,0.040480,0.007457,-0.025566,-53.000000,-12.000000,13.000000"
"134143,0.287505,-0.345593,0.644058,-0.618947,0.056641,-1.002075,-0.069336,0.022371,0.004261,-0.012783,0.000000,0.000000,0.000000"
"134167,0.287348,-0.345753,0.644450,-0.618522,0.057495,-0.999878,-0.070068,0.017044,0.003196,-0.009587,0.000000,0.000000,0.000000"
"134192,0.287234,-0.345872,0.644876,-0.618065,0.056885,-1.000366,-0.072998,0.012783,0.003196,-0.007457,0.000000,0.000000,0.000000"
"134217,0.286892,-0.345509,0.645140,-0.618151,0.056152,-0.999390,-0.070312,0.000000,0.002131,-0.002131,-53.000000,-14.000000,11.000000"
"134241,0.287205,-0.345179,0.644690,-0.618660,0.056519,-0.998779,-0.068848,0.022371,0.004261,-0.013848,0.000000,0.000000,0.000000"
"134265,0.287220,-0.345156,0.644997,-0.618345,0.054932,-0.999756,-0.073364,0.054328,0.009587,-0.031958,0.000000,0.000000,0.000000"
"134285,0.287197,-0.345183,0.645337,-0.617986,0.053955,-1.001587,-0.076416,0.042611,0.006392,-0.025566,0.000000,0.000000,0.000000"
"134312,0.286856,-0.344826,0.645531,-0.618141,0.053101,-1.001099,-0.076782,0.018109,0.005326,-0.011718,-53.000000,-14.000000,12.000000"
"134337,0.287126,-0.344593,0.646111,-0.617539,0.053101,-0.999756,-0.073975,-0.011718,0.001065,0.006392,0.000000,0.000000,0.000000"
"134362,0.287667,-0.344102,0.646606,-0.617042,0.053955,-0.999268,-0.072876,-0.008522,0.001065,0.007457,0.000000,0.000000,0.000000"
"134382,0.286987,-0.344732,0.646623,-0.616990,0.055786,-1.000122,-0.074585,-0.018109,-0.001065,0.009587,0.000000,0.000000,0.000000"
"134413,0.286660,-0.344369,0.646903,-0.617052,0.055664,-0.998535,-0.073975,-0.006392,0.001065,0.004261,-53.000000,-13.000000,12.000000"
"134436,0.286835,-0.344166,0.646428,-0.617581,0.054321,-0.999146,-0.073853,0.009587,0.003196,-0.006392,0.000000,0.000000,0.000000"
"134458,0.286929,-0.344040,0.645893,-0.618167,0.054810,-1.000000,-0.071533,0.015979,0.003196,-0.010653,0.000000,0.000000,0.000000"
"134481,0.287113,-0.343866,0.646357,-0.617694,0.054077,-0.999634,-0.072144,0.018109,0.006392,-0.012783,0.000000,0.000000,0.000000"
"134506,0.286776,-0.343509,0.646549,-0.617848,0.053711,-1.000244,-0.076294,0.017044,0.004261,-0.009587,-52.000000,-13.000000,12.000000"
"134529,0.286632,-0.343660,0.647019,-0.617338,0.053223,-1.001221,-0.076904,-0.002131,0.001065,0.002131,0.000000,0.000000,0.000000"
"134553,0.286220,-0.344048,0.647390,-0.616924,0.054077,-0.999878,-0.074829,-0.014914,0.001065,0.007457,0.000000,0.000000,0.000000"
"134575,0.286525,-0.343740,0.647050,-0.617310,0.053833,-1.000244,-0.073608,-0.009587,0.000000,0.005326,0.000000,0.000000,0.000000"
"134601,0.286167,-0.343352,0.647298,-0.617433,0.054443,-0.998169,-0.071411,0.008522,0.002131,-0.004261,-51.000000,-13.000000,7.000000"
"134625,0.286004,-0.343516,0.647671,-0.617026,0.053467,-1.000610,-0.076416,0.021305,0.003196,-0.011718,0.000000,0.000000,0.000000"
"134653,0.286192,-0.343297,0.647121,-0.617637,0.053589,-0.998413,-0.075073,0.030893,0.005326,-0.018109,0.000000,0.000000,0.000000"
"134679,0.286040,-0.343441,0.647479,-0.617253,0.053101,-1.002197,-0.078979,0.027697,0.005326,-0.014914,0.000000,0.000000,0.000000"
"134705,0.285715,-0.343075,0.647822,-0.617246,0.052124,-1.000244,-0.078003,-0.022371,-0.001065,0.012783,-52.000000,-12.000000,11.000000"
"134730,0.285976,-0.342858,0.648449,-0.616588,0.052979,-0.998901,-0.075439,-0.023436,-0.001065,0.014914,0.000000,0.000000,0.000000"
"134755,0.285604,-0.343170,0.647998,-0.617060,0.053833,-1.001343,-0.075562,-0.015979,0.000000,0.009587,0.000000,0.000000,0.000000"
"134781,0.285997,-0.342775,0.647626,-0.617488,0.052979,-0.998291,-0.074341,0.015979,0.003196,-0.010653,0.000000,0.000000,0.000000"
"134805,0.285637,-0.342403,0.647821,-0.617656,0.053467,-1.000732,-0.075928,0.017044,0.003196,-0.010653,-53.000000,-12.000000,9.000000"
"134829,0.285515,-0.342539,0.648318,-0.617116,0.052368,-1.001709,-0.078613,-0.007457,0.000000,0.005326,0.000000,0.000000,0.000000"
"134849,0.285397,-0.342674,0.648959,-0.616421,0.052734,-1.000000,-0.075928,-0.044741,-0.003196,0.027697,0.000000,0.000000,0.000000"
"134872,0.285264,-0.342780,0.648651,-0.616749,0.053711,-0.999756,-0.075806,-0.054328,-0.005326,0.035154,0.000000,0.000000,0.000000"
"134901,0.284939,-0.342379,0.649144,-0.616603,0.055054,-0.999878,-0.072876,-0.056459,-0.006392,0.035154,-52.000000,-12.000000,7.000000"
"134926,0.284946,-0.342348,0.648864,-0.616910,0.055420,-0.999756,-0.071655,-0.056459,-0.004261,0.034088,0.000000,0.000000,0.000000"
"134950,0.284993,-0.342287,0.648607,-0.617194,0.056274,-1.000610,-0.068848,-0.059655,-0.005326,0.037284,0.000000,0.000000,0.000000"
"134973,0.284877,-0.342384,0.648300,-0.617515,0.058716,-1.000488,-0.069214,-0.055394,-0.006392,0.034088,0.000000,0.000000,0.000000"
"134993,0.284774,-0.342461,0.647943,-0.617895,0.059082,-0.999634,-0.068359,-0.041545,-0.004261,0.026632,0.000000,0.000000,0.000000"
"135028,0.284444,-0.342091,0.648313,-0.617864,0.059326,-1.000488,-0.067505,-0.030893,-0.001065,0.017044,-52.000000,-13.000000,11.000000"
"135048,0.284383,-0.342124,0.647890,-0.618318,0.060913,-1.000122,-0.064209,-0.023436,-0.002131,0.013848,0.000000,0.000000,0.000000"
"135073,0.284333,-0.342141,0.647447,-0.618795,0.060059,-1.000732,-0.065430,-0.017044,-0.001065,0.012783,0.000000,0.000000,0.000000"
"135101,0.284008,-0.341764,0.647740,-0.618845,0.059814,-0.999023,-0.064087,-0.010653,0.000000,0.008522,-52.000000,-13.000000,11.000000"
"135126,0.283930,-0.341799,0.647261,-0.619363,0.060181,-1.000366,-0.065308,-0.009587,0.001065,0.004261,0.000000,0.000000,0.000000"
"135151,0.283863,-0.341810,0.646710,-0.619963,0.059937,-0.998901,-0.065063,0.010653,0.004261,-0.005326,0.000000,0.000000,0.000000"
"135175,0.283841,-0.341784,0.646114,-0.620608,0.060425,-1.000366,-0.062988,0.023436,0.004261,-0.013848,0.000000,0.000000,0.000000"
"135203,0.283474,-0.341421,0.646263,-0.620821,0.059082,-1.000854,-0.065430,0.024501,0.006392,-0.017044,-53.000000,-12.000000,11.000000"
"135223,0.283293,-0.341541,0.645654,-0.621471,0.059326,-1.000854,-0.067017,0.020240,0.004261,-0.012783,0.000000,0.000000,0.000000"
"135251,0.283228,-0.341614,0.646104,-0.620992,0.058594,-0.999756,-0.068237,0.010653,0.003196,-0.006392,0.000000,0.000000,0.000000"
"135278,0.283536,-0.341288,0.645699,-0.621452,0.058105,-1.000122,-0.066650,0.009587,0.003196,-0.004261,0.000000,0.000000,0.000000"
"135304,0.283185,-0.340929,0.645919,-0.621581,0.058350,-0.999512,-0.067871,0.007457,0.004261,-0.006392,-51.000000,-12.000000,11.000000"
"135329,0.282813,-0.341272,0.646201,-0.621269,0.058838,-1.000488,-0.069092,0.018109,0.005326,-0.011718,0.000000,0.000000,0.000000"
"135354,0.282749,-0.341341,0.646628,-0.620815,0.058105,-1.000122,-0.070312,0.017044,0.004261,-0.009587,0.000000,0.000000,0.000000"
"135378,0.283147,-0.340936,0.646277,-0.621222,0.057861,-1.001099,-0.068359,0.011718,0.003196,-0.007457,0.000000,0.000000,0.000000"
"135404,0.282823,-0.340588,0.646467,-0.621362,0.057007,-1.000000,-0.068115,0.012783,0.004261,-0.007457,-52.000000,-13.000000,14.000000"
"135424,0.282643,-0.340770,0.646842,-0.620954,0.057495,-0.999512,-0.070923,0.019175,0.003196,-0.011718,0.000000,0.000000,0.000000"
"135449,0.282449,-0.340943,0.647179,-0.620596,0.057373,-0.999146,-0.072754,0.029827,0.007457,-0.018109,0.000000,0.000000,0.000000"
"135474,0.282602,-0.340794,0.647570,-0.620201,0.057007,-0.999756,-0.071289,0.036219,0.008522,-0.023436,0.000000,0.000000,0.000000"
"135500,0.282251,-0.340424,0.647714,-0.620413,0.055054,-1.001099,-0.070435,0.029827,0.005326,-0.017044,-52.000000,-13.000000,10.000000"
"135528,0.282564,-0.340160,0.648265,-0.619839,0.054199,-1.001587,-0.073364,-0.005326,0.000000,0.004261,0.000000,0.000000,0.000000"
"135555,0.281935,-0.340745,0.648370,-0.619695,0.056763,-0.999756,-0.072998,-0.010653,0.000000,0.007457,0.000000,0.000000,0.000000"
"135579,0.282569,-0.340137,0.648357,-0.619753,0.056274,-1.000122,-0.072876,-0.006392,0.002131,0.002131,0.000000,0.000000,0.000000"
"135605,0.282228,-0.339798,0.648540,-0.619903,0.055542,-0.999390,-0.070190,0.009587,0.004261,-0.009587,-52.000000,-11.000000,14.000000"
"135628,0.282896,-0.339163,0.648665,-0.619816,0.054443,-1.000854,-0.072388,0.034088,0.006392,-0.019175,0.000000,0.000000,0.000000"
"135648,0.282397,-0.339618,0.648811,-0.619642,0.054810,-1.000854,-0.073608,0.027697,0.005326,-0.014914,0.000000,0.000000,0.000000"
"135671,0.282226,-0.339784,0.649203,-0.619218,0.054443,-1.000488,-0.074707,0.015979,0.004261,-0.011718,0.000000,0.000000,0.000000"
"135698,0.281868,-0.339410,0.649422,-0.619356,0.054565,-0.999146,-0.074829,0.007457,0.004261,-0.005326,-53.000000,-11.000000,10.000000"
"135726,0.282516,-0.338791,0.649331,-0.619495,0.053955,-0.999023,-0.073853,0.024501,0.004261,-0.014914,0.000000,0.000000,0.000000"
"135749,0.282234,-0.339051,0.649643,-0.619155,0.053345,-1.001343,-0.075073,0.024501,0.005326,-0.013848,0.000000,0.000000,0.000000"
"135776,0.282018,-0.339255,0.650034,-0.618731,0.053223,-0.999634,-0.077393,0.011718,0.004261,-0.008522,0.000000,0.000000,0.000000"
"135802,0.281686,-0.338903,0.650231,-0.618867,0.053345,-0.999390,-0.076660,0.011718,0.004261,-0.007457,-53.000000,-13.000000,13.000000"
"135827,0.281878,-0.338730,0.650744,-0.618336,0.052368,-1.001099,-0.076782,0.005326,0.004261,-0.004261,0.000000,0.000000,0.000000"
"135851,0.282319,-0.338298,0.650474,-0.618655,0.051880,-0.999634,-0.076050,-0.003196,0.001065,0.002131,0.000000,0.000000,0.000000"
"135877,0.281739,-0.338833,0.650664,-0.618427,0.054199,-1.000000,-0.077881,-0.010653,0.001065,0.007457,0.000000,0.000000,0.000000"
"135902,0.281406,-0.338466,0.650934,-0.618495,0.053101,-0.999878,-0.076294,-0.007457,0.001065,0.004261,-52.000000,-11.000000,11.000000"
"135931,0.281482,-0.338363,0.650463,-0.619012,0.052734,-0.999756,-0.076172,-0.002131,0.001065,0.001065,0.000000,0.000000,0.000000"
"135956,0.281708,-0.338178,0.651025,-0.618420,0.052368,-1.000000,-0.076050,-0.007457,0.000000,0.005326,0.000000,0.000000,0.000000"
"135979,0.281085,-0.338727,0.650662,-0.618785,0.052856,-0.999634,-0.076538,-0.006392,0.001065,0.002131,0.000000,0.000000,0.000000"
"136004,0.280752,-0.338359,0.650880,-0.618907,0.052979,-0.999512,-0.075928,0.007457,0.002131,-0.003196,-53.000000,-12.000000,11.000000"
"136029,0.281141,-0.338011,0.651401,-0.618373,0.052246,-1.000610,-0.077393,-0.002131,0.002131,0.001065,0.000000,0.000000,0.000000"
"136049,0.281037,-0.338062,0.650876,-0.618944,0.053345,-0.998169,-0.075195,0.002131,0.003196,-0.001065,0.000000,0.000000,0.000000"
"136078,0.281715,-0.337424,0.651094,-0.618755,0.052368,-1.000610,-0.076172,0.010653,0.004261,-0.005326,0.000000,0.000000,0.000000"
"136106,0.281376,-0.337057,0.651393,-0.618795,0.053101,-1.000977,-0.076660,-0.013848,0.000000,0.007457,-52.000000,-11.000000,10.000000"
"136131,0.280844,-0.337521,0.651012,-0.619185,0.052734,-0.999634,-0.075562,-0.017044,0.000000,0.010653,0.000000,0.000000,0.000000"
"136156,0.281110,-0.337252,0.650667,-0.619574,0.052490,-1.000732,-0.074829,-0.014914,-0.001065,0.011718,0.000000,0.000000,0.000000"
"136181,0.280663,-0.337689,0.651107,-0.619075,0.053345,-1.001343,-0.076172,-0.044741,-0.004261,0.026632,0.000000,0.000000,0.000000"
"136208,0.280357,-0.337314,0.651553,-0.618949,0.054199,-0.999268,-0.074463,-0.051133,-0.004261,0.030893,-53.000000,-12.000000,11.000000"
"136232,0.280255,-0.337371,0.651127,-0.619413,0.056030,-0.999390,-0.071899,-0.022371,0.000000,0.015979,0.000000,0.000000,0.000000"
"136257,0.280312,-0.337289,0.650732,-0.619846,0.054565,-1.000366,-0.072021,-0.023436,-0.001065,0.013848,0.000000,0.000000,0.000000"
"136277,0.280221,-0.337350,0.650298,-0.620310,0.055908,-1.000000,-0.071411,-0.021305,-0.002131,0.014914,0.000000,0.000000,0.000000"
"136305,0.279898,-0.336964,0.650667,-0.620278,0.055420,-1.001465,-0.072510,-0.026632,-0.001065,0.018109,-52.000000,-13.000000,9.000000"
"136330,0.279839,-0.336993,0.650336,-0.620636,0.056885,-0.999756,-0.069458,-0.046872,-0.003196,0.026632,0.000000,0.000000,0.000000"
"136358,0.279788,-0.337010,0.649912,-0.621093,0.058472,-0.998535,-0.066406,-0.022371,-0.001065,0.013848,0.000000,0.000000,0.000000"
"136381,0.279567,-0.337174,0.649380,-0.621661,0.058105,-1.000244,-0.069336,0.001065,0.002131,-0.001065,0.000000,0.000000,0.000000"
"136405,0.279206,-0.336796,0.649677,-0.621717,0.057861,-1.000732,-0.069580,-0.009587,0.000000,0.003196,-52.000000,-12.000000,7.000000"
"136429,0.279262,-0.336708,0.649206,-0.622232,0.057129,-1.000366,-0.068726,-0.003196,0.001065,0.004261,0.000000,0.000000,0.000000"
"136452,0.279103,-0.336811,0.648694,-0.622781,0.058105,-0.999390,-0.068115,-0.003196,0.002131,0.002131,0.000000,0.000000,0.000000"
"136472,0.278723,-0.337172,0.649045,-0.622390,0.058228,-0.999268,-0.070435,-0.003196,0.002131,0.001065,0.000000,0.000000,0.000000"
"136500,0.278399,-0.336800,0.649357,-0.622411,0.057861,-1.000854,-0.070312,-0.013848,0.000000,0.009587,-52.000000,-13.000000,10.000000"
"136519,0.278487,-0.336689,0.649009,-0.622794,0.058228,-0.999390,-0.069336,-0.033023,-0.002131,0.021305,0.000000,0.000000,0.000000"
"136543,0.278533,-0.336616,0.648664,-0.623172,0.059082,-1.000488,-0.067017,-0.037284,-0.002131,0.022371,0.000000,0.000000,0.000000"
"136568,0.278480,-0.336634,0.648302,-0.623563,0.060425,-1.000366,-0.065186,-0.038350,-0.002131,0.023436,0.000000,0.000000,0.000000"
"136591,0.278158,-0.336270,0.648699,-0.623490,0.060059,-0.999634,-0.066040,-0.037284,-0.003196,0.020240,-52.000000,-13.000000,10.000000"
"136615,0.278130,-0.336251,0.648226,-0.624005,0.061401,-0.997803,-0.062012,-0.008522,0.002131,0.003196,0.000000,0.000000,0.000000"
"136639,0.277615,-0.336676,0.647559,-0.624697,0.061035,-1.000244,-0.066162,0.049002,0.007457,-0.026632,0.000000,0.000000,0.000000"
"136657,0.277902,-0.336420,0.648010,-0.624240,0.058716,-1.001831,-0.067749,0.019175,0.004261,-0.013848,0.000000,0.000000,0.000000"
"136679,0.278582,-0.335781,0.648143,-0.624142,0.058838,-0.999023,-0.066162,0.014914,0.003196,-0.010653,0.000000,0.000000,0.000000"
"136705,0.278221,-0.335411,0.648270,-0.624371,0.058350,-0.998901,-0.067871,0.033023,0.005326,-0.018109,-53.000000,-12.000000,9.000000"
"136730,0.278012,-0.335620,0.648644,-0.623963,0.058228,-1.002075,-0.070435,0.015979,0.003196,-0.012783,0.000000,0.000000,0.000000"
"136757,0.278435,-0.335174,0.648197,-0.624478,0.057251,-0.997314,-0.065308,0.046872,0.008522,-0.030893,0.000000,0.000000,0.000000"
"136781,0.278436,-0.335164,0.648425,-0.624246,0.056030,-1.000977,-0.068726,0.073503,0.010653,-0.043676,0.000000,0.000000,0.000000"
"136806,0.278055,-0.334820,0.648477,-0.624547,0.056030,-1.002563,-0.074097,0.050067,0.008522,-0.033023,-53.000000,-12.000000,10.000000"
"136831,0.277949,-0.334921,0.648832,-0.624171,0.056030,-0.999878,-0.071899,0.033023,0.006392,-0.020240,0.000000,0.000000,0.000000"
"136851,0.277891,-0.334984,0.649245,-0.623733,0.054565,-1.000732,-0.075439,0.021305,0.004261,-0.011718,0.000000,0.000000,0.000000"
"136878,0.277870,-0.335026,0.649747,-0.623198,0.054565,-1.002197,-0.074829,0.000000,0.001065,0.000000,0.000000,0.000000,0.000000"
"136909,0.277511,-0.334631,0.650098,-0.623204,0.054565,-1.001709,-0.073975,-0.013848,0.000000,0.008522,-52.000000,-14.000000,4.000000"
"136930,0.277499,-0.334662,0.650619,-0.622649,0.055054,-0.999878,-0.072876,-0.004261,0.001065,0.003196,0.000000,0.000000,0.000000"
"136959,0.277381,-0.334774,0.651067,-0.622172,0.055420,-1.000854,-0.073242,0.007457,0.004261,-0.004261,0.000000,0.000000,0.000000"
"136981,0.277899,-0.334299,0.651505,-0.621737,0.054077,-1.000732,-0.072754,0.005326,0.003196,-0.003196,0.000000,0.000000,0.000000"
"137006,0.277584,-0.333935,0.651795,-0.621770,0.053711,-1.001221,-0.075073,-0.012783,-0.001065,0.009587,-52.000000,-11.000000,11.000000"
"137029,0.277093,-0.334406,0.652136,-0.621378,0.055298,-1.000732,-0.075195,-0.027697,-0.002131,0.017044,0.000000,0.000000,0.000000"
"137057,0.277002,-0.334460,0.651646,-0.621903,0.056030,-0.999634,-0.072021,-0.007457,0.000000,0.004261,0.000000,0.000000,0.000000"
"137077,0.277075,-0.334351,0.651118,-0.622482,0.055542,-0.998779,-0.071655,0.012783,0.003196,-0.009587,0.000000,0.000000,0.000000"
"137106,0.276719,-0.333998,0.651244,-0.622698,0.055054,-0.999512,-0.070923,0.028762,0.006392,-0.019175,-52.000000,-12.000000,11.000000"
"137126,0.276679,-0.334046,0.651648,-0.622268,0.054077,-1.000488,-0.076050,0.024501,0.004261,-0.013848,0.000000,0.000000,0.000000"
"137153,0.276801,-0.333953,0.652185,-0.621700,0.052979,-1.000732,-0.076050,-0.003196,0.001065,0.001065,0.000000,0.000000,0.000000"
"137179,0.276562,-0.334188,0.652650,-0.621192,0.054443,-0.999756,-0.074951,-0.011718,0.001065,0.005326,0.000000,0.000000,0.000000"
"137205,0.276264,-0.333835,0.652937,-0.621214,0.054687,-1.001221,-0.073242,-0.011718,0.000000,0.008522,-52.000000,-14.000000,13.000000"
"137229,0.276404,-0.333673,0.652547,-0.621648,0.054687,-1.000610,-0.073242,-0.017044,0.000000,0.010653,0.000000,0.000000,0.000000"
"137254,0.276529,-0.333530,0.652150,-0.622085,0.054932,-1.000122,-0.071899,-0.017044,-0.001065,0.012783,0.000000,0.000000,0.000000"
"137276,0.276438,-0.333581,0.651682,-0.622588,0.055786,-0.999634,-0.071411,-0.012783,0.000000,0.007457,0.000000,0.000000,0.000000"
"137302,0.276140,-0.333250,0.651913,-0.622656,0.055664,-0.999878,-0.071167,-0.002131,0.002131,0.001065,-50.000000,-13.000000,15.000000"
"137324,0.275777,-0.333586,0.652165,-0.622374,0.055298,-0.999146,-0.072876,0.027697,0.005326,-0.017044,0.000000,0.000000,0.000000"
"137349,0.275531,-0.333809,0.652436,-0.622079,0.055664,-0.998291,-0.074707,0.040480,0.007457,-0.025566,0.000000,0.000000,0.000000"
"137374,0.276152,-0.333216,0.652490,-0.622064,0.053711,-0.999268,-0.074463,0.064981,0.009587,-0.040480,0.000000,0.000000,0.000000"
"137404,0.275799,-0.332846,0.652631,-0.622271,0.051270,-1.001831,-0.080078,0.029827,0.004261,-0.015979,-50.000000,-11.000000,8.000000"
"137431,0.275935,-0.332747,0.653309,-0.621552,0.051147,-1.001709,-0.078369,-0.039415,-0.002131,0.020240,0.000000,0.000000,0.000000"
"137457,0.276128,-0.332552,0.653048,-0.621845,0.053345,-0.999512,-0.074829,-0.046872,-0.004261,0.028762,0.000000,0.000000,0.000000"
"137482,0.275775,-0.332861,0.652712,-0.622189,0.054199,-1.000244,-0.073853,-0.043676,-0.004261,0.027697,0.000000,0.000000,0.000000"
"137509,0.275451,-0.332452,0.653231,-0.622007,0.053833,-1.000610,-0.074463,-0.057524,-0.004261,0.036219,-54.000000,-15.000000,5.000000"
"137535,0.275428,-0.332472,0.653089,-0.622154,0.055054,-1.001831,-0.073364,-0.093743,-0.010653,0.060720,0.000000,0.000000,0.000000"
"137555,0.275342,-0.332569,0.653096,-0.622134,0.055664,-1.001953,-0.072998,-0.134223,-0.015979,0.083091,0.000000,0.000000,0.000000"
"137580,0.275372,-0.332560,0.653152,-0.622066,0.058960,-0.998657,-0.066406,-0.143811,-0.017044,0.087352,0.000000,0.000000,0.000000"
"137606,0.275069,-0.332170,0.653641,-0.621895,0.062988,-0.997192,-0.059448,-0.059655,-0.005326,0.037284,-52.000000,-15.000000,9.000000"
"137631,0.274934,-0.332253,0.653139,-0.622438,0.063110,-1.000488,-0.063110,-0.004261,0.002131,0.002131,0.000000,0.000000,0.000000"
"137658,0.274794,-0.332338,0.652587,-0.623032,0.062134,-0.999634,-0.064087,0.007457,0.003196,-0.006392,0.000000,0.000000,0.000000"
"137681,0.274743,-0.332345,0.652003,-0.623662,0.061646,-1.000488,-0.061646,0.019175,0.003196,-0.011718,0.000000,0.000000,0.000000"
"137707,0.274400,-0.331981,0.652201,-0.623801,0.060913,-1.002441,-0.062866,0.010653,0.002131,-0.006392,-53.000000,-13.000000,10.000000"
"137731,0.274314,-0.332013,0.651686,-0.624360,0.061157,-0.999756,-0.063599,0.000000,0.003196,-0.002131,0.000000,0.000000,0.000000"
"137751,0.274253,-0.332025,0.651137,-0.624952,0.060425,-1.000366,-0.064453,0.009587,0.003196,-0.006392,0.000000,0.000000,0.000000"
"137779,0.274189,-0.332027,0.650587,-0.625552,0.061157,-0.999878,-0.062500,0.009587,0.005326,-0.011718,0.000000,0.000000,0.000000"
"137809,0.273798,-0.331680,0.650616,-0.625876,0.061768,-0.997925,-0.059814,0.049002,0.008522,-0.034088,-52.000000,-11.000000,10.000000"
"137830,0.273789,-0.331615,0.649684,-0.626882,0.059692,-0.999512,-0.065063,0.112918,0.013848,-0.064981,0.000000,0.000000,0.000000"
"137855,0.273799,-0.331595,0.649880,-0.626685,0.055542,-1.002930,-0.072876,0.082025,0.011718,-0.049002,0.000000,0.000000,0.000000"
"137880,0.273874,-0.331544,0.650453,-0.626085,0.054810,-1.003662,-0.073730,-0.012783,0.001065,0.006392,0.000000,0.000000,0.000000"
"137906,0.273553,-0.331142,0.650911,-0.625963,0.056152,-1.002075,-0.070557,-0.046872,-0.004261,0.030893,-52.000000,-12.000000,6.000000"
"137931,0.272894,-0.331766,0.651007,-0.625819,0.058960,-1.000366,-0.067017,-0.072438,-0.007457,0.043676,0.000000,0.000000,0.000000"
"137957,0.273121,-0.331536,0.650767,-0.626093,0.060059,-0.997314,-0.064087,-0.047937,-0.004261,0.028762,0.000000,0.000000,0.000000"
"137982,0.272604,-0.331973,0.650283,-0.626589,0.060303,-1.000610,-0.067017,0.006392,0.003196,-0.001065,0.000000,0.000000,0.000000"
"138007,0.272293,-0.331641,0.650540,-0.626633,0.059204,-1.001709,-0.069092,-0.009587,0.001065,0.003196,-52.000000,-12.000000,14.000000"
"138030,0.272815,-0.331133,0.650455,-0.626763,0.059570,-0.999023,-0.064209,-0.031958,-0.001065,0.017044,0.000000,0.000000,0.000000"
"138050,0.273355,-0.330620,0.650373,-0.626883,0.059570,-1.001099,-0.064697,-0.033023,-0.003196,0.022371,0.000000,0.000000,0.000000"
"138077,0.272782,-0.331145,0.650125,-0.627113,0.062256,-0.999268,-0.064209,-0.041545,-0.004261,0.023436,0.000000,0.000000,0.000000"
"138102,0.272437,-0.330784,0.650394,-0.627175,0.063232,-0.997803,-0.062012,-0.004261,0.000000,0.001065,-50.000000,-13.000000,8.000000"
"138125,0.272451,-0.330704,0.649735,-0.627893,0.062256,-0.998291,-0.060059,0.043676,0.008522,-0.026632,0.000000,0.000000,0.000000"
"138149,0.272989,-0.330153,0.649345,-0.628352,0.060181,-0.999634,-0.062134,0.063916,0.009587,-0.037284,0.000000,0.000000,0.000000"
"138175,0.272960,-0.330182,0.649667,-0.628017,0.058105,-1.002319,-0.067383,0.046872,0.007457,-0.029827,0.000000,0.000000,0.000000"
"138200,0.272616,-0.329821,0.649848,-0.628169,0.058838,-1.000488,-0.068604,0.017044,0.004261,-0.008522,-53.000000,-12.000000,10.000000"
"138224,0.272498,-0.329941,0.650259,-0.627732,0.058960,-1.000610,-0.068481,0.017044,0.004261,-0.010653,0.000000,0.000000,0.000000"
"138242,0.272642,-0.329801,0.650549,-0.627443,0.059326,-0.999023,-0.064331,0.061785,0.009587,-0.036219,0.000000,0.000000,0.000000"
"138268,0.272733,-0.329707,0.650783,-0.627209,0.055908,-1.000732,-0.068848,0.075634,0.010653,-0.042611,0.000000,0.000000,0.000000"
"138293,0.272391,-0.329369,0.650871,-0.627444,0.054810,-1.003174,-0.074585,0.038350,0.006392,-0.022371,-53.000000,-12.000000,12.000000"
"138320,0.272364,-0.329415,0.651397,-0.626886,0.055664,-1.002319,-0.073730,-0.006392,0.001065,0.004261,0.000000,0.000000,0.000000"
"138344,0.272356,-0.329437,0.651924,-0.626330,0.056396,-1.002075,-0.070923,-0.005326,0.002131,0.002131,0.000000,0.000000,0.000000"
"138369,0.272253,-0.329545,0.652361,-0.625862,0.057373,-0.999756,-0.068970,0.010653,0.003196,-0.006392,0.000000,0.000000,0.000000"
"138395,0.271900,-0.329183,0.652485,-0.626076,0.056641,-0.999756,-0.070068,0.028762,0.005326,-0.015979,-53.000000,-11.000000,10.000000"
"138419,0.271867,-0.329219,0.652815,-0.625728,0.055176,-0.999634,-0.074219,0.044741,0.006392,-0.024501,0.000000,0.000000,0.000000"
"138443,0.271924,-0.329172,0.653240,-0.625284,0.053833,-1.002441,-0.075317,0.024501,0.005326,-0.014914,0.000000,0.000000,0.000000"
"138462,0.272224,-0.328905,0.653738,-0.624773,0.055420,-1.000854,-0.071411,0.006392,0.003196,-0.005326,0.000000,0.000000,0.000000"
"138489,0.271892,-0.328543,0.653907,-0.624932,0.054443,-1.000244,-0.072388,0.018109,0.004261,-0.008522,-53.000000,-12.000000,11.000000"
"138513,0.271853,-0.328588,0.654397,-0.624412,0.053833,-1.000977,-0.075439,0.002131,0.003196,-0.001065,0.000000,0.000000,0.000000"
"138533,0.271905,-0.328553,0.654937,-0.623842,0.053711,-0.998169,-0.074219,-0.006392,0.002131,0.001065,0.000000,0.000000,0.000000"
"138560,0.272330,-0.328126,0.654631,-0.624202,0.053711,-0.999390,-0.073608,0.005326,0.003196,-0.006392,0.000000,0.000000,0.000000"
"138583,0.272177,-0.328279,0.655087,-0.623710,0.053101,-1.001587,-0.075073,0.001065,0.002131,0.000000,0.000000,0.000000,0.000000"
"138609,0.271879,-0.327925,0.655442,-0.623653,0.052979,-1.001953,-0.076050,-0.031958,-0.002131,0.019175,-52.000000,-12.000000,12.000000"
"138632,0.271509,-0.328250,0.655117,-0.623984,0.054810,-0.999878,-0.073486,-0.044741,-0.004261,0.028762,0.000000,0.000000,0.000000"
"138656,0.271660,-0.328093,0.654812,-0.624321,0.054321,-0.999512,-0.072998,-0.039415,-0.004261,0.027697,0.000000,0.000000,0.000000"
"138680,0.271218,-0.328485,0.654530,-0.624604,0.055664,-1.000244,-0.072510,-0.051133,-0.004261,0.029827,0.000000,0.000000,0.000000"
"138705,0.270914,-0.328099,0.654989,-0.624456,0.056763,-0.999390,-0.069458,-0.055394,-0.005326,0.034088,-53.000000,-12.000000,9.000000"
"138728,0.270932,-0.328070,0.654714,-0.624752,0.057373,-1.000244,-0.068970,-0.057524,-0.006392,0.036219,0.000000,0.000000,0.000000"
"138747,0.270886,-0.328101,0.654439,-0.625044,0.059570,-0.999634,-0.066162,-0.060720,-0.006392,0.037284,0.000000,0.000000,0.000000"
"138770,0.270842,-0.328118,0.654071,-0.625440,0.060181,-0.998657,-0.064453,-0.036219,-0.003196,0.022371,0.000000,0.000000,0.000000"
"138798,0.270520,-0.327752,0.654384,-0.625443,0.061035,-1.000732,-0.063843,-0.018109,0.000000,0.010653,-52.000000,-14.000000,10.000000"
"138821,0.270480,-0.327742,0.653875,-0.625998,0.060181,-0.999512,-0.063232,0.001065,0.003196,-0.002131,0.000000,0.000000,0.000000"
"138845,0.270382,-0.327781,0.653319,-0.626600,0.060059,-1.000977,-0.065186,0.010653,0.004261,-0.006392,0.000000,0.000000,0.000000"
"138869,0.270358,-0.327763,0.652803,-0.627158,0.058838,-1.001709,-0.066772,0.003196,0.002131,-0.001065,0.000000,0.000000,0.000000"
"138895,0.270025,-0.327425,0.653030,-0.627241,0.060913,-0.998901,-0.065186,0.002131,0.002131,-0.004261,-51.000000,-14.000000,11.000000"
"138918,0.269830,-0.327546,0.652337,-0.627983,0.060181,-0.999146,-0.065186,0.042611,0.007457,-0.025566,0.000000,0.000000,0.000000"
"138942,0.269762,-0.327617,0.652716,-0.627580,0.058594,-1.002197,-0.069336,0.028762,0.005326,-0.018109,0.000000,0.000000,0.000000"
"138967,0.269976,-0.327440,0.653268,-0.627007,0.057373,-1.001709,-0.069092,-0.006392,0.001065,0.000000,0.000000,0.000000,0.000000"
"138991,0.269644,-0.327068,0.653531,-0.627069,0.059326,-0.998901,-0.066040,-0.006392,0.002131,0.005326,-53.000000,-12.000000,10.000000"
"139015,0.269829,-0.326853,0.653118,-0.627532,0.058105,-1.001099,-0.067017,-0.005326,0.002131,0.005326,0.000000,0.000000,0.000000"
"139041,0.269327,-0.327289,0.652660,-0.627997,0.059448,-0.999023,-0.066406,-0.005326,0.001065,0.000000,0.000000,0.000000,0.000000"
"139065,0.269877,-0.326748,0.652438,-0.628273,0.058838,-1.000000,-0.065552,0.014914,0.003196,-0.008522,0.000000,0.000000,0.000000"
"139081,0.269763,-0.326870,0.652916,-0.627762,0.058350,-1.002197,-0.067261,-0.001065,0.002131,-0.001065,0.000000,0.000000,0.000000"
"139112,0.269405,-0.326508,0.653182,-0.627827,0.058594,-0.999878,-0.066406,-0.006392,0.001065,0.000000,-53.000000,-12.000000,8.000000"
"139132,0.268753,-0.327094,0.653080,-0.627908,0.058716,-0.998047,-0.067017,0.046872,0.007457,-0.024501,0.000000,0.000000,0.000000"
"139156,0.268703,-0.327136,0.653334,-0.627643,0.059204,-1.000732,-0.069214,0.062851,0.009587,-0.039415,0.000000,0.000000,0.000000"
"139179,0.269157,-0.326690,0.653487,-0.627521,0.056396,-0.999756,-0.069092,0.077764,0.012783,-0.049002,0.000000,0.000000,0.000000"
"139202,0.268802,-0.326374,0.653411,-0.627917,0.053955,-1.001343,-0.071533,0.074569,0.011718,-0.045806,-52.000000,-12.000000,14.000000"
"139226,0.268893,-0.326292,0.653744,-0.627573,0.053589,-1.001831,-0.074585,0.049002,0.007457,-0.029827,0.000000,0.000000,0.000000"
"139249,0.268933,-0.326267,0.654239,-0.627053,0.053467,-1.000122,-0.076538,0.005326,0.003196,-0.004261,0.000000,0.000000,0.000000"
"139276,0.268935,-0.326278,0.654729,-0.626536,0.054932,-0.998413,-0.074341,0.004261,0.003196,-0.005326,0.000000,0.000000,0.000000"
"139301,0.268583,-0.325915,0.654891,-0.626706,0.053711,-0.999146,-0.073242,0.021305,0.005326,-0.012783,-52.000000,-12.000000,9.000000"
"139326,0.268598,-0.325911,0.655330,-0.626242,0.054321,-1.002075,-0.076050,0.018109,0.004261,-0.011718,0.000000,0.000000,0.000000"
"139349,0.268757,-0.325786,0.655850,-0.625695,0.053101,-0.999512,-0.075562,0.002131,0.001065,-0.001065,0.000000,0.000000,0.000000"
"139374,0.268751,-0.325808,0.656399,-0.625109,0.053467,-1.000732,-0.077637,-0.011718,0.001065,0.007457,0.000000,0.000000,0.000000"
"139402,0.268461,-0.325450,0.656803,-0.624997,0.053101,-1.000977,-0.075317,-0.043676,-0.002131,0.025566,-52.000000,-13.000000,12.000000"
"139425,0.268575,-0.325318,0.656533,-0.625301,0.055420,-0.999634,-0.070190,-0.051133,-0.003196,0.028762,0.000000,0.000000,0.000000"
"139448,0.268419,-0.325433,0.656086,-0.625776,0.055664,-0.999634,-0.072510,-0.019175,-0.001065,0.012783,0.000000,0.000000,0.000000"
"139472,0.268322,-0.325478,0.655604,-0.626299,0.055908,-0.999634,-0.072021,-0.008522,0.002131,0.004261,0.000000,0.000000,0.000000"
"139497,0.267962,-0.325113,0.655773,-0.626467,0.056030,-0.999023,-0.069824,0.021305,0.003196,-0.013848,-52.000000,-13.000000,7.000000"
"139522,0.268172,-0.324930,0.656190,-0.626034,0.054443,-1.001465,-0.073608,0.028762,0.004261,-0.015979,0.000000,0.000000,0.000000"
"139543,0.268346,-0.324787,0.656768,-0.625428,0.053711,-1.002441,-0.074585,-0.012783,0.001065,0.006392,0.000000,0.000000,0.000000"
"139568,0.268043,-0.325045,0.656337,-0.625876,0.055298,-1.000000,-0.072998,-0.023436,-0.002131,0.012783,0.000000,0.000000,0.000000"
"139592,0.267722,-0.324691,0.656612,-0.625909,0.055664,-0.999512,-0.070679,-0.012783,0.000000,0.006392,-53.000000,-12.000000,11.000000"
"139616,0.267929,-0.324518,0.657160,-0.625334,0.054321,-1.001709,-0.074463,-0.005326,0.001065,0.002131,0.000000,0.000000,0.000000"
"139639,0.267625,-0.324765,0.656653,-0.625868,0.055542,-0.998657,-0.073242,-0.004261,0.001065,0.001065,0.000000,0.000000,0.000000"
"139663,0.267873,-0.324494,0.656226,-0.626351,0.055176,-1.000122,-0.072632,0.006392,0.003196,-0.002131,0.000000,0.000000,0.000000"
"139687,0.267580,-0.324155,0.656507,-0.626357,0.055420,-1.001221,-0.071899,-0.013848,-0.001065,0.008522,-53.000000,-14.000000,13.000000"
"139705,0.267182,-0.324492,0.656067,-0.626813,0.055542,-1.000000,-0.072144,-0.013848,0.000000,0.011718,0.000000,0.000000,0.000000"
"139729,0.267538,-0.324184,0.656640,-0.626221,0.055420,-0.999756,-0.072388,-0.013848,0.000000,0.008522,0.000000,0.000000,0.000000"
"139757,0.267390,-0.324279,0.656122,-0.626777,0.055664,-0.999634,-0.071777,-0.001065,0.002131,0.000000,0.000000,0.000000,0.000000"
"139781,0.267048,-0.323913,0.656336,-0.626889,0.056641,-0.999023,-0.071533,0.008522,0.004261,-0.004261,-52.000000,-13.000000,9.000000"
"139805,0.266505,-0.324415,0.656466,-0.626724,0.056274,-1.000122,-0.072266,0.022371,0.004261,-0.015979,0.000000,0.000000,0.000000"
"139828,0.267010,-0.323948,0.656811,-0.626388,0.054932,-1.000610,-0.073364,0.025566,0.005326,-0.018109,0.000000,0.000000,0.000000"
"139847,0.267240,-0.323734,0.657237,-0.625955,0.053467,-0.999512,-0.074585,0.026632,0.006392,-0.015979,0.000000,0.000000,0.000000"
"139871,0.267222,-0.323762,0.657633,-0.625531,0.053955,-1.000000,-0.074463,0.026632,0.004261,-0.017044,0.000000,0.000000,0.000000"
"139896,0.266864,-0.323413,0.657711,-0.625783,0.054687,-0.998291,-0.073242,0.040480,0.007457,-0.024501,-53.000000,-13.000000,10.000000"
"139921,0.267414,-0.322897,0.657931,-0.625583,0.051758,-0.999023,-0.075073,0.051133,0.007457,-0.028762,0.000000,0.000000,0.000000"
"139943,0.267010,-0.323255,0.658112,-0.625381,0.052979,-1.000977,-0.076294,0.042611,0.008522,-0.025566,0.000000,0.000000,0.000000"
"139967,0.266823,-0.323426,0.658429,-0.625038,0.052856,-1.001709,-0.079468,0.035154,0.006392,-0.019175,0.000000,0.000000,0.000000"
"139996,0.266518,-0.323072,0.658687,-0.625079,0.049805,-1.001587,-0.080688,-0.008522,0.002131,0.006392,-51.000000,-11.000000,12.000000"
"140019,0.266825,-0.322805,0.659302,-0.624437,0.051880,-1.001343,-0.077881,-0.022371,0.000000,0.014914,0.000000,0.000000,0.000000"
"140039,0.266578,-0.322994,0.658843,-0.624930,0.052734,-0.999390,-0.076904,-0.015979,0.001065,0.008522,0.000000,0.000000,0.000000"
"140063,0.265914,-0.323599,0.658861,-0.624881,0.052979,-0.999146,-0.077271,0.004261,0.002131,-0.002131,0.000000,0.000000,0.000000"
"140089,0.265573,-0.323242,0.659015,-0.625048,0.053101,-0.999756,-0.077271,0.018109,0.003196,-0.010653,-54.000000,-11.000000,10.000000"
"140117,0.266150,-0.322713,0.659329,-0.624745,0.051758,-0.999512,-0.078369,0.023436,0.004261,-0.013848,0.000000,0.000000,0.000000"
"140141,0.266619,-0.322299,0.659847,-0.624211,0.049805,-1.002686,-0.079468,-0.010653,0.000000,0.004261,0.000000,0.000000,0.000000"
"140165,0.266649,-0.322252,0.659426,-0.624667,0.050903,-0.999634,-0.078369,-0.019175,-0.002131,0.010653,0.000000,0.000000,0.000000"
"140189,0.266351,-0.321910,0.659665,-0.624719,0.051880,-0.997925,-0.076660,-0.001065,-0.001065,0.002131,-51.000000,-14.000000,11.000000"
"140213,0.265881,-0.322340,0.659895,-0.624454,0.051514,-1.000366,-0.078735,0.013848,0.004261,-0.009587,0.000000,0.000000,0.000000"
"140235,0.266472,-0.321765,0.659703,-0.624701,0.050659,-0.998779,-0.078125,0.023436,0.005326,-0.014914,0.000000,0.000000,0.000000"
"140260,0.266379,-0.321858,0.660087,-0.624288,0.050293,-1.000122,-0.079224,0.025566,0.004261,-0.012783,0.000000,0.000000,0.000000"
"140282,0.266068,-0.321512,0.660375,-0.624294,0.050659,-1.001831,-0.080444,-0.014914,0.000000,0.007457,-52.000000,-13.000000,11.000000"
"140306,0.265727,-0.321806,0.659946,-0.624741,0.051392,-0.999634,-0.078491,-0.020240,-0.002131,0.013848,0.000000,0.000000,0.000000"
"140330,0.265658,-0.321886,0.660444,-0.624203,0.051392,-0.999023,-0.078979,-0.003196,0.001065,0.004261,0.000000,0.000000,0.000000"
"140357,0.265644,-0.321855,0.659937,-0.624760,0.051514,-0.999878,-0.079102,0.002131,0.003196,-0.003196,0.000000,0.000000,0.000000"
"140383,0.265285,-0.321487,0.660124,-0.624905,0.050903,-1.000977,-0.078491,0.011718,0.003196,-0.008522,-55.000000,-11.000000,8.000000"
"140406,0.265758,-0.321068,0.660585,-0.624432,0.050537,-1.001221,-0.079224,0.004261,0.001065,-0.002131,0.000000,0.000000,0.000000"
"140430,0.265373,-0.321439,0.660932,-0.624038,0.050415,-0.999634,-0.080078,-0.004261,0.000000,0.003196,0.000000,0.000000,0.000000"
"140455,0.265634,-0.321170,0.660530,-0.624490,0.050537,-1.000610,-0.079834,0.000000,0.001065,0.000000,0.000000,0.000000,0.000000"
"140475,0.265210,-0.321567,0.660821,-0.624158,0.051147,-1.000122,-0.080688,0.005326,0.002131,-0.003196,0.000000,0.000000,0.000000"
"140501,0.264861,-0.321216,0.660978,-0.624321,0.051270,-0.998535,-0.079834,0.018109,0.005326,-0.012783,-53.000000,-12.000000,10.000000"
"140524,0.265113,-0.320931,0.660460,-0.624908,0.050781,-0.998657,-0.078613,0.033023,0.007457,-0.021305,0.000000,0.000000,0.000000"
"140549,0.265221,-0.320837,0.660857,-0.624491,0.049194,-0.999023,-0.081299,0.033023,0.005326,-0.017044,0.000000,0.000000,0.000000"
"140572,0.265199,-0.320876,0.661349,-0.623960,0.049072,-1.002441,-0.083618,0.001065,0.001065,-0.001065,0.000000,0.000000,0.000000"
"140600,0.264902,-0.320533,0.661629,-0.623966,0.050171,-0.999512,-0.081421,-0.015979,-0.001065,0.009587,-52.000000,-12.000000,12.000000"
"140624,0.265084,-0.320336,0.661190,-0.624454,0.049683,-0.998657,-0.079712,0.000000,0.001065,0.000000,0.000000,0.000000,0.000000"
"140648,0.265655,-0.319785,0.661013,-0.624682,0.049072,-1.000000,-0.079346,0.008522,0.003196,-0.006392,0.000000,0.000000,0.000000"
"140672,0.265528,-0.319917,0.661419,-0.624238,0.048096,-1.000610,-0.081665,0.015979,0.002131,-0.006392,0.000000,0.000000,0.000000"
"140699,0.265230,-0.319566,0.661706,-0.624240,0.048340,-1.003296,-0.084961,-0.014914,-0.001065,0.010653,-52.000000,-12.000000,11.000000"
"140723,0.264558,-0.320177,0.661626,-0.624296,0.051025,-0.999146,-0.080444,-0.043676,-0.003196,0.025566,0.000000,0.000000,0.000000"
"140748,0.264604,-0.320104,0.661145,-0.624825,0.050781,-0.998413,-0.077759,-0.001065,0.001065,0.000000,0.000000,0.000000,0.000000"
"140771,0.264079,-0.320591,0.661327,-0.624604,0.050537,-0.999268,-0.079712,0.010653,0.002131,-0.005326,0.000000,0.000000,0.000000"
"140800,0.263789,-0.320252,0.661567,-0.624646,0.050049,-1.000122,-0.081787,-0.006392,0.000000,0.005326,-52.000000,-12.000000,13.000000"
"140819,0.264029,-0.320068,0.662304,-0.623858,0.050659,-1.001221,-0.081665,-0.054328,-0.005326,0.031958,0.000000,0.000000,0.000000"
"140844,0.264072,-0.320013,0.662023,-0.624166,0.051880,-1.000000,-0.077515,-0.054328,-0.005326,0.033023,0.000000,0.000000,0.000000"
"140868,0.264096,-0.319951,0.661496,-0.624746,0.052979,-0.997070,-0.072754,0.010653,0.003196,-0.005326,0.000000,0.000000,0.000000"
"140892,0.263738,-0.319588,0.661605,-0.624967,0.052002,-0.999756,-0.078003,0.029827,0.005326,-0.017044,-55.000000,-11.000000,9.000000"
"140916,0.263904,-0.319456,0.662179,-0.624357,0.050049,-1.002930,-0.081299,-0.012783,0.000000,0.007457,0.000000,0.000000,0.000000"
"140937,0.263876,-0.319459,0.661837,-0.624729,0.051636,-1.002075,-0.078125,-0.041545,-0.003196,0.026632,0.000000,0.000000,0.000000"
"140961,0.263925,-0.319408,0.661578,-0.625010,0.051880,-1.002808,-0.076904,-0.059655,-0.007457,0.039415,0.000000,0.000000,0.000000"
"140985,0.263623,-0.319007,0.662173,-0.624711,0.055298,-1.000122,-0.076050,-0.087352,-0.009587,0.051133,-52.000000,-13.000000,5.000000"
"141009,0.263496,-0.319110,0.661875,-0.625028,0.056519,-0.995483,-0.071411,-0.057524,-0.005326,0.030893,0.000000,0.000000,0.000000"
"141028,0.263368,-0.319181,0.661309,-0.625645,0.057983,-0.995972,-0.068359,0.013848,0.004261,-0.007457,0.000000,0.000000,0.000000"
"141053,0.263242,-0.319230,0.660546,-0.626478,0.056396,-0.997925,-0.069702,0.064981,0.010653,-0.038350,0.000000,0.000000,0.000000"
"141078,0.262892,-0.318908,0.660498,-0.626840,0.052368,-1.001953,-0.076538,0.067112,0.008522,-0.039415,-53.000000,-12.000000,12.000000"
"141102,0.262832,-0.318979,0.661012,-0.626287,0.051392,-1.002563,-0.081665,-0.006392,0.001065,0.005326,0.000000,0.000000,0.000000"
"141123,0.262702,-0.319136,0.661707,-0.625527,0.052246,-1.002319,-0.080688,-0.062851,-0.006392,0.038350,0.000000,0.000000,0.000000"
"141147,0.262759,-0.319079,0.661519,-0.625731,0.053955,-0.998535,-0.073975,-0.078830,-0.008522,0.044741,0.000000,0.000000,0.000000"
"141174,0.262713,-0.319083,0.661014,-0.626281,0.056763,-0.994629,-0.068481,0.000000,0.002131,-0.001065,0.000000,0.000000,0.000000"
"141199,0.262335,-0.318691,0.661097,-0.626552,0.054565,-0.998657,-0.072388,0.042611,0.006392,-0.021305,-52.000000,-11.000000,5.000000"
"141223,0.261991,-0.318969,0.660510,-0.627173,0.053955,-1.002930,-0.077026,0.019175,0.003196,-0.009587,0.000000,0.000000,0.000000"
"141247,0.262473,-0.318501,0.660373,-0.627354,0.053467,-1.000122,-0.075195,-0.031958,-0.001065,0.019175,0.000000,0.000000,0.000000"
"141272,0.262485,-0.318476,0.660052,-0.627699,0.054077,-1.001099,-0.073730,-0.045806,-0.005326,0.029827,0.000000,0.000000,0.000000"
"141296,0.262188,-0.318099,0.660538,-0.627503,0.056030,-0.999268,-0.070190,-0.060720,-0.006392,0.035154,-50.000000,-14.000000,7.000000"
"141320,0.262064,-0.318182,0.660065,-0.628011,0.057983,-0.996460,-0.068115,-0.010653,0.000000,0.008522,0.000000,0.000000,0.000000"
"141339,0.261961,-0.318226,0.659403,-0.628727,0.055298,-1.000732,-0.071899,0.038350,0.006392,-0.022371,0.000000,0.000000,0.000000"
"141361,0.261382,-0.318755,0.659478,-0.628620,0.055176,-1.000610,-0.072754,0.029827,0.005326,-0.021305,0.000000,0.000000,0.000000"
