qw,qx,qy,qz,ax,ay,az
0.2809934914112091,0.007567938417196274,0.010518623515963554,-0.9596222043037415,-0.018798828125,-0.0162353515625,1.0032958984375
0.28101617097854614,0.007963764481246471,0.009611150249838829,-0.9596219658851624,-0.0206298828125,-0.0147705078125,1.0020751953125
0.28101393580436707,0.007542644161731005,0.01052859053015709,-0.9596163630485535,-0.0206298828125,-0.014892578125,1.00341796875
0.2807714343070984,0.007569645065814257,0.010770238935947418,-0.9596843719482422,-0.0194091796875,-0.0159912109375,1.002685546875
0.2807847857475281,0.006958790589123964,0.009986932389438152,-0.9596936106681824,-0.0196533203125,-0.0157470703125,1.00146484375
0.28078708052635193,0.007163006812334061,0.010972799733281136,-0.9596806168556213,-0.019775390625,-0.0167236328125,1.0030517578125
0.2808043956756592,0.007534397300332785,0.01005481369793415,-0.959682822227478,-0.020263671875,-0.013916015625,1.0032958984375
0.2810347378253937,0.007476230151951313,0.009916223585605621,-0.9596171975135803,-0.021240234375,-0.0147705078125,1.0035400390625
0.2810278832912445,0.007128273136913776,0.010859144851565361,-0.959611713886261,-0.0198974609375,-0.016357421875,1.0035400390625
0.2810465693473816,0.0065503716468811035,0.010046565905213356,-0.9596192836761475,-0.0184326171875,-0.0157470703125,1.0037841796875
0.2810685336589813,0.007310972549021244,0.009411009959876537,-0.9596136808395386,-0.0194091796875,-0.013916015625,1.00244140625
0.28107282519340515,0.007730960845947266,0.010322516784071922,-0.9595997333526611,-0.020263671875,-0.0150146484375,1.0010986328125
0.281116247177124,0.007714461535215378,0.010299471206963062,-0.9595874547958374,-0.0186767578125,-0.015380859375,1.0029296875
0.2811260223388672,0.006889924872666597,0.009728450328111649,-0.9595968723297119,-0.02001953125,-0.0152587890625,1.002685546875
0.2811416983604431,0.007870825938880444,0.009919545613229275,-0.9595828056335449,-0.0206298828125,-0.0146484375,1.002197265625
0.28115081787109375,0.007283095736056566,0.009114965796470642,-0.9595927596092224,-0.020263671875,-0.0142822265625,1.0029296875
0.2809969484806061,0.00730950478464365,0.00926357414573431,-0.9596361517906189,-0.0201416015625,-0.015625,1.002197265625
0.2810049057006836,0.007579389493912458,0.010227781720459461,-0.9596219658851624,-0.020263671875,-0.0152587890625,1.0018310546875
0.2810218036174774,0.007236169651150703,0.009296794421970844,-0.9596290588378906,-0.0201416015625,-0.01513671875,1.001953125
0.2810175120830536,0.007267466280609369,0.010301055386662483,-0.9596198201179504,-0.019775390625,-0.015625,1.00341796875
0.2810334265232086,0.008196594193577766,0.00996120274066925,-0.9596112966537476,-0.020263671875,-0.015380859375,1.0025634765625
0.28128597140312195,0.008119507692754269,0.009807581081986427,-0.9595394730567932,-0.0206298828125,-0.01513671875,1.003173828125
0.28127914667129517,0.0072949351742863655,0.010380363091826439,-0.9595421552658081,-0.019775390625,-0.0159912109375,1.0023193359375
0.28130707144737244,0.007935595698654652,0.009618769399821758,-0.9595368504524231,-0.020263671875,-0.0150146484375,1.00244140625
0.2813057005405426,0.0077367257326841354,0.01060387771576643,-0.9595285058021545,-0.020751953125,-0.0147705078125,1.001953125
0.28130924701690674,0.006742311641573906,0.01048589963465929,-0.9595361948013306,-0.019775390625,-0.0162353515625,1.0035400390625
0.28138023614883423,0.006734673399478197,0.010442293249070644,-0.9595158696174622,-0.019287109375,-0.0155029296875,1.00146484375
0.28139767050743103,0.007378275506198406,0.00968334823846817,-0.9595139622688293,-0.01904296875,-0.015869140625,1.0025634765625
0.28141263127326965,0.008348490111529827,0.00992264598608017,-0.9594992995262146,-0.0206298828125,-0.014404296875,1.0015869140625
0.281415194272995,0.007341667078435421,0.009975764900445938,-0.9595062136650085,-0.01953125,-0.01513671875,1.0035400390625
0.2812950611114502,0.007360086310654879,0.01008443534374237,-0.9595401287078857,-0.0189208984375,-0.014892578125,1.00244140625
0.2813172936439514,0.008148090913891792,0.009477700106799603,-0.9595335125923157,-0.0203857421875,-0.0145263671875,1.0029296875
0.28131499886512756,0.007714377716183662,0.010384289547801018,-0.9595283269882202,-0.0208740234375,-0.0145263671875,1.0020751953125
0.2813173532485962,0.006809059530496597,0.009962300769984722,-0.9595389366149902,-0.0191650390625,-0.015380859375,1.0018310546875
0.28132662177085876,0.007755211554467678,0.010285954922437668,-0.9595255851745605,-0.020263671875,-0.015380859375,1.0018310546875
0.28117093443870544,0.007781019899994135,0.010426411405205727,-0.9595694541931152,-0.0201416015625,-0.015625,1.002685546875
0.28118202090263367,0.007014844100922346,0.009783584624528885,-0.9595789313316345,-0.0196533203125,-0.01513671875,1.0028076171875
0.2812042236328125,0.007663432043045759,0.009028779342770576,-0.9595749378204346,-0.019775390625,-0.01318359375,1.00244140625
0.2811988890171051,0.007581727113574743,0.010035619139671326,-0.9595670700073242,-0.0203857421875,-0.015625,1.0029296875
0.2810589373111725,0.0076120467856526375,0.010171834379434586,-0.9596065282821655,-0.0201416015625,-0.0146484375,1.00146484375
0.28106987476348877,0.006856436375528574,0.009517401456832886,-0.9596156477928162,-0.019775390625,-0.0150146484375,1.003662109375
0.2810696065425873,0.007289709523320198,0.010418247431516647,-0.9596031308174133,-0.019287109375,-0.0152587890625,1.00244140625
0.28109005093574524,0.008252380415797234,0.010168684646487236,-0.9595921039581299,-0.02001953125,-0.015869140625,1.00244140625
0.2811218798160553,0.008230495266616344,0.010157845914363861,-0.959583044052124,-0.019775390625,-0.017333984375,1.0025634765625
0.2811325490474701,0.0074275583028793335,0.009568673558533192,-0.9595924615859985,-0.0208740234375,-0.0146484375,1.0023193359375
0.2811306118965149,0.006818708498030901,0.010374187491834164,-0.9595892429351807,-0.0191650390625,-0.015625,1.0029296875
0.2811490297317505,0.007714095059782267,0.010825133882462978,-0.9595720767974854,-0.0203857421875,-0.016357421875,1.00244140625
0.2811654508113861,0.007837479002773762,0.009838282130658627,-0.9595769047737122,-0.0206298828125,-0.014404296875,1.0032958984375
0.28094714879989624,0.007867359556257725,0.010042711161077023,-0.9596384167671204,-0.0203857421875,-0.0145263671875,1.0018310546875
0.2809516489505768,0.0068792006932199,0.00988706573843956,-0.959646463394165,-0.018798828125,-0.01513671875,1.0020751953125
0.28095537424087524,0.007585747167468071,0.010597817599773407,-0.9596323370933533,-0.0198974609375,-0.0157470703125,1.0029296875
0.28097063302993774,0.007579682394862175,0.009603184647858143,-0.9596384763717651,-0.0201416015625,-0.0146484375,1.0030517578125
0.28080445528030396,0.0076088616624474525,0.009768578223884106,-0.9596850275993347,-0.020263671875,-0.0147705078125,1.003173828125
0.28080323338508606,0.006754428148269653,0.010295303538441658,-0.9596864581108093,-0.0189208984375,-0.015869140625,1.0025634765625
0.280815452337265,0.007612921297550201,0.010810157284140587,-0.9596707224845886,-0.0191650390625,-0.01611328125,1.003173828125
0.28082188963890076,0.006686285603791475,0.010436655953526497,-0.959679901599884,-0.020263671875,-0.0164794921875,1.003173828125
0.28066393733024597,0.0067261154763400555,0.010576048865914345,-0.9597242474555969,-0.0208740234375,-0.01513671875,1.001220703125
0.2806810736656189,0.007562634535133839,0.010042947717010975,-0.9597187638282776,-0.019775390625,-0.0155029296875,1.0010986328125
0.28069868683815,0.006891831289976835,0.009315470233559608,-0.9597259759902954,-0.018310546875,-0.013916015625,1.0028076171875
0.2807060480117798,0.007518233265727758,0.010098417289555073,-0.9597112536430359,-0.0198974609375,-0.0150146484375,1.0023193359375
0.2806037366390228,0.007540592923760414,0.010196635499596596,-0.9597399234771729,-0.0206298828125,-0.014404296875,1.001953125
0.2806028723716736,0.006622065789997578,0.01059817150235176,-0.9597426652908325,-0.01953125,-0.0159912109375,1.0030517578125
0.28062039613723755,0.007279574871063232,0.009861051104962826,-0.9597406387329102,-0.0196533203125,-0.0146484375,1.0028076171875
0.2806287407875061,0.007124470081180334,0.008885495364665985,-0.9597488641738892,-0.0191650390625,-0.0140380859375,1.0028076171875
0.2806297540664673,0.007124762982130051,0.009892314672470093,-0.9597386717796326,-0.0196533203125,-0.01611328125,1.0032958984375
0.2804590165615082,0.007158488966524601,0.01007151324301958,-0.9597864747047424,-0.0196533203125,-0.015625,1.0028076171875
0.28047633171081543,0.007862888276576996,0.00936832930892706,-0.9597830772399902,-0.019775390625,-0.0147705078125,1.0028076171875
0.2804745137691498,0.007131203543394804,0.0100496681407094,-0.9597823619842529,-0.020263671875,-0.013916015625,1.00390625
0.2804866135120392,0.006449961103498936,0.009325558319687843,-0.9597910046577454,-0.01904296875,-0.01513671875,1.0040283203125
0.28039368987083435,0.0064734588377177715,0.009448773227632046,-0.9598166942596436,-0.01953125,-0.0159912109375,1.00244140625
0.2803975045681,0.00716942036524415,0.010173697955906391,-0.9598033428192139,-0.0198974609375,-0.0157470703125,1.0035400390625
0.28040796518325806,0.00672793248668313,0.009289952926337719,-0.9598124623298645,-0.0189208984375,-0.014892578125,1.001953125
0.2804138958454132,0.007230658084154129,0.01016668789088726,-0.9597981572151184,-0.0194091796875,-0.0152587890625,1.0025634765625
0.2803049385547638,0.007249131798744202,0.010263028554618359,-0.959828794002533,-0.0198974609375,-0.0157470703125,1.0052490234375
0.28030672669410706,0.006249405909329653,0.01032291166484356,-0.9598346948623657,-0.0189208984375,-0.0159912109375,1.003662109375
0.2803248167037964,0.00724291754886508,0.010373317636549473,-0.959821879863739,-0.020263671875,-0.0157470703125,1.00341796875
0.2803444266319275,0.00822148285806179,0.010219475254416466,-0.9598098993301392,-0.0208740234375,-0.015380859375,1.0029296875
0.28054600954055786,0.008169727399945259,0.01012272946536541,-0.9597523808479309,-0.019775390625,-0.01513671875,1.0037841796875
0.2805507481098175,0.007190327160060406,0.009947722777724266,-0.9597607254981995,-0.01904296875,-0.01513671875,1.0028076171875
0.28056636452674866,0.008114170283079147,0.00957613717764616,-0.95975261926651,-0.0203857421875,-0.014404296875,1.00390625
0.28056490421295166,0.007931380532681942,0.010564342141151428,-0.9597441554069519,-0.0211181640625,-0.0147705078125,1.00341796875
0.2805643379688263,0.006976481061428785,0.01087032351642847,-0.959748387336731,-0.0205078125,-0.016357421875,1.0029296875
0.2807410955429077,0.006919317413121462,0.010755405761301517,-0.9596983194351196,-0.018798828125,-0.0150146484375,1.002685546875
0.2807600796222687,0.0068143196403980255,0.009764126501977444,-0.9597041606903076,-0.018798828125,-0.015380859375,1.00244140625
0.2807668149471283,0.007368677761405706,0.010599210858345032,-0.959689199924469,-0.02001953125,-0.01611328125,1.003173828125
0.280789852142334,0.007990194484591484,0.009822072461247444,-0.959685742855072,-0.0206298828125,-0.0150146484375,1.00146484375
0.2808668613433838,0.007965132594108582,0.00979032926261425,-0.9596637487411499,-0.0189208984375,-0.0155029296875,1.0018310546875
0.28085941076278687,0.007278041914105415,0.010523209348320961,-0.9596636891365051,-0.0196533203125,-0.0167236328125,1.0029296875
0.280882328748703,0.007918665185570717,0.009768037125468254,-0.9596598744392395,-0.02099609375,-0.0137939453125,1.0032958984375
0.28089475631713867,0.008827152661979198,0.01018887385725975,-0.9596439003944397,-0.021240234375,-0.014404296875,1.0020751953125
0.28071779012680054,0.008851480670273304,0.01035663764923811,-0.9596936106681824,-0.01904296875,-0.014892578125,1.003173828125
0.28071925044059753,0.00785551592707634,0.01048253569751978,-0.9597005844116211,-0.01953125,-0.016357421875,1.002197265625
0.28072890639305115,0.007029725704342127,0.009925145655870438,-0.9597101211547852,-0.0198974609375,-0.015380859375,1.0023193359375
0.2807483673095703,0.008006183430552483,0.009733752347528934,-0.9596987366676331,-0.0201416015625,-0.0146484375,1.0042724609375
0.28060784935951233,0.00802063662558794,0.009889265522360802,-0.9597380757331848,-0.0191650390625,-0.0166015625,1.0035400390625
0.2806079089641571,0.0070635536685585976,0.01021257322281599,-0.9597421288490295,-0.0181884765625,-0.0164794921875,1.0029296875
0.2806149125099182,0.0076373303309082985,0.01102486252784729,-0.9597267508506775,-0.0198974609375,-0.01611328125,1.0032958984375
0.2806316614151001,0.00782181415706873,0.010048159398138523,-0.9597311615943909,-0.020751953125,-0.0155029296875,1.0020751953125
0.28062722086906433,0.006845343392342329,0.010264754295349121,-0.9597375392913818,-0.0189208984375,-0.015869140625,1.00146484375
0.28048041462898254,0.006873787380754948,0.010425979271531105,-0.9597785472869873,-0.0186767578125,-0.01611328125,1.0023193359375
0.28050050139427185,0.006921645253896713,0.009437674656510353,-0.959782600402832,-0.018798828125,-0.014892578125,1.00341796875
0.2805090844631195,0.00763331726193428,0.010153557173907757,-0.9597672820091248,-0.0211181640625,-0.015625,1.003173828125
0.2805020809173584,0.006805888842791319,0.010728099383413792,-0.9597693681716919,-0.0198974609375,-0.015869140625,1.002197265625
0.28043922781944275,0.006819646805524826,0.010778381489217281,-0.959787130355835,-0.01904296875,-0.0150146484375,1.0035400390625
0.28046175837516785,0.007312975358217955,0.009913125075399876,-0.9597861766815186,-0.0196533203125,-0.014892578125,1.0023193359375
0.28046509623527527,0.008024962618947029,0.010625014081597328,-0.9597718715667725,-0.0206298828125,-0.0155029296875,1.0029296875
0.2804763913154602,0.007587859407067299,0.009726465679705143,-0.9597817063331604,-0.0203857421875,-0.0147705078125,1.0032958984375
0.2803303003311157,0.007619880605489016,0.009898716583848,-0.9598223567008972,-0.019287109375,-0.0155029296875,1.00244140625
0.2803352177143097,0.0066762082278728485,0.01023807656019926,-0.9598244428634644,-0.01953125,-0.0152587890625,1.0018310546875
0.28035008907318115,0.007631248328834772,0.010552390478551388,-0.9598095417022705,-0.0205078125,-0.0159912109375,1.001953125
0.28036198019981384,0.00693854596465826,0.009841830469667912,-0.9598188996315002,-0.019287109375,-0.0152587890625,1.0010986328125
0.2805633544921875,0.006885124836117029,0.009708377532660961,-0.9597616791725159,-0.0201416015625,-0.014892578125,1.0029296875
0.2805694341659546,0.007414980325847864,0.010569047182798386,-0.9597468972206116,-0.0198974609375,-0.015869140625,1.003662109375
0.2805888056755066,0.007297100033611059,0.009584068320691586,-0.9597525000572205,-0.01953125,-0.0145263671875,1.002197265625
0.28058701753616333,0.006590936798602343,0.01029842160642147,-0.959750771522522,-0.0185546875,-0.0159912109375,1.0029296875
0.280405193567276,0.0066366372630000114,0.010512166656553745,-0.9598012566566467,-0.0208740234375,-0.01513671875,1.002197265625
0.2804277539253235,0.0073653277941048145,0.009847388602793217,-0.9597963690757751,-0.019287109375,-0.0155029296875,1.0025634765625
0.2804443836212158,0.008192629553377628,0.009286967106163502,-0.9597904086112976,-0.020751953125,-0.0135498046875,1.002685546875
0.2804372012615204,0.007816651836037636,0.010219085030257702,-0.9597861766815186,-0.0208740234375,-0.014404296875,1.002197265625
0.280238538980484,0.007842201739549637,0.010397377423942089,-0.9598420858383179,-0.019287109375,-0.015869140625,1.0035400390625
0.2802518308162689,0.007208724971860647,0.009628020226955414,-0.9598512053489685,-0.0198974609375,-0.014892578125,1.0037841796875
0.2802654206752777,0.008152604103088379,0.009974407032132149,-0.9598361253738403,-0.02001953125,-0.0145263671875,1.0023193359375
0.28026360273361206,0.007146880961954594,0.009942721575498581,-0.9598450660705566,-0.019287109375,-0.01513671875,1.0028076171875
0.28013840317726135,0.0071742418222129345,0.010053359903395176,-0.9598801136016846,-0.019775390625,-0.0150146484375,1.0025634765625
0.2801556885242462,0.007901623845100403,0.009380548261106014,-0.9598762392997742,-0.019775390625,-0.0147705078125,1.0020751953125
0.28014999628067017,0.007009256165474653,0.00983152911067009,-0.9598803520202637,-0.019775390625,-0.0142822265625,1.0025634765625
0.2801497280597687,0.006897009909152985,0.010825767181813717,-0.9598705172538757,-0.019287109375,-0.0164794921875,1.003662109375
0.28032374382019043,0.006862823385745287,0.010733647271990776,-0.9598209857940674,-0.01953125,-0.0152587890625,1.002197265625
0.2803419232368469,0.007855378091335297,0.01077587902545929,-0.9598075747489929,-0.0205078125,-0.0164794921875,1.0020751953125
0.28035667538642883,0.00733199855312705,0.009933087974786758,-0.9598165154457092,-0.020263671875,-0.0155029296875,1.0030517578125
0.2803710401058197,0.007275846786797047,0.008934893645346165,-0.9598225355148315,-0.01953125,-0.0145263671875,1.00244140625
0.2803710401058197,0.0071732597425580025,0.009929310530424118,-0.9598135948181152,-0.01953125,-0.015869140625,1.002197265625
0.28024187684059143,0.007208220660686493,0.01009001862257719,-0.9598493576049805,-0.01953125,-0.0157470703125,1.0009765625
0.28025737404823303,0.008192985318601131,0.010313193313777447,-0.9598345756530762,-0.02099609375,-0.0152587890625,1.001953125
0.2802523970603943,0.00722156697884202,0.010571906343102455,-0.9598410129547119,-0.0198974609375,-0.0162353515625,1.0023193359375
0.2802635133266449,0.006833938416093588,0.009663938544690609,-0.9598501324653625,-0.0194091796875,-0.0157470703125,1.0030517578125
0.28014644980430603,0.006855519022792578,0.009773852303624153,-0.9598830342292786,-0.01953125,-0.0159912109375,1.003173828125
0.2801647186279297,0.007849819958209991,0.009711174294352531,-0.9598707556724548,-0.0205078125,-0.0142822265625,1.0023193359375
0.280162513256073,0.007262992672622204,0.010537246242165565,-0.9598673582077026,-0.0201416015625,-0.0155029296875,1.001953125
0.28017687797546387,0.007174296770244837,0.009549499489367008,-0.959874153137207,-0.01953125,-0.0152587890625,1.001708984375
0.28001463413238525,0.007208262104541063,0.009714030660688877,-0.9599194526672363,-0.0206298828125,-0.0152587890625,1.004150390625
0.2800167500972748,0.007842474617064,0.010496244765818119,-0.959905743598938,-0.0203857421875,-0.015380859375,1.002685546875
0.28001803159713745,0.007106432691216469,0.009826873429119587,-0.959918200969696,-0.0201416015625,-0.015380859375,1.003173828125
0.28002047538757324,0.007329850923269987,0.010805952362716198,-0.959905207157135,-0.0196533203125,-0.0157470703125,1.001953125
0.28003746271133423,0.007011597976088524,0.009858298115432262,-0.9599128365516663,-0.019775390625,-0.01611328125,1.0018310546875
0.27993491291999817,0.007033277302980423,0.009959518909454346,-0.959941565990448,-0.0203857421875,-0.014892578125,1.002685546875
0.27994292974472046,0.0060190968215465546,0.009951853193342686,-0.9599462151527405,-0.01904296875,-0.0152587890625,1.0029296875
0.27995726466178894,0.00699919369071722,0.009779193438589573,-0.9599371552467346,-0.0186767578125,-0.0150146484375,1.002197265625
0.27996546030044556,0.007933523505926132,0.010165085084736347,-0.959923505783081,-0.020263671875,-0.0150146484375,1.0010986328125
0.27976730465888977,0.007954593747854233,0.010339735075831413,-0.959979236125946,-0.0198974609375,-0.015869140625,1.0035400390625
0.2797851860523224,0.007655615918338299,0.009390443563461304,-0.9599862098693848,-0.020751953125,-0.014892578125,1.0025634765625
0.2797844111919403,0.006785022094845772,0.009897499345242977,-0.9599879384040833,-0.019287109375,-0.0145263671875,1.0023193359375
0.27979180216789246,0.007392138242721558,0.010699568316340446,-0.9599725604057312,-0.018798828125,-0.015380859375,1.002197265625
0.27963849902153015,0.007420561742037535,0.010852598585188389,-0.9600152969360352,-0.02001953125,-0.0155029296875,1.0025634765625
0.27965107560157776,0.007814099080860615,0.009939226321876049,-0.9600185751914978,-0.0205078125,-0.015625,1.0023193359375
0.27964574098587036,0.006869019474834204,0.010284285992383957,-0.9600236415863037,-0.01904296875,-0.015869140625,1.001708984375
0.27965497970581055,0.007594254799187183,0.010982651263475418,-0.9600077271461487,-0.019775390625,-0.016357421875,1.0025634765625
0.27952268719673157,0.0076255653984844685,0.011104661040008068,-0.9600445628166199,-0.0203857421875,-0.0155029296875,1.00244140625
0.27954012155532837,0.007303530350327492,0.010164330713450909,-0.9600524306297302,-0.01904296875,-0.014404296875,1.001953125
0.2795581817626953,0.007073311600834131,0.009193550795316696,-0.9600587487220764,-0.0191650390625,-0.014404296875,1.002685546875
0.27955248951911926,0.006834908854216337,0.010175422765314579,-0.9600521326065063,-0.018798828125,-0.014404296875,1.002197265625
0.27979448437690735,0.006766467820852995,0.010025550611317158,-0.9599836468696594,-0.019287109375,-0.0140380859375,1.00244140625
0.2798122465610504,0.007764804642647505,0.0100443409755826,-0.9599708914756775,-0.02001953125,-0.01513671875,1.0029296875
0.27980974316596985,0.006768663413822651,0.010049926117062569,-0.9599790573120117,-0.0196533203125,-0.0152587890625,1.0028076171875
0.2798318862915039,0.007478191517293453,0.009348155930638313,-0.9599744081497192,-0.01904296875,-0.014892578125,1.0029296875
0.2798307240009308,0.007228090427815914,0.010321731679141521,-0.9599667191505432,-0.0196533203125,-0.0145263671875,1.001953125
0.2796083092689514,0.007253861986100674,0.010496488772332668,-0.9600293040275574,-0.0208740234375,-0.0145263671875,1.00146484375
0.27963054180145264,0.008099970407783985,0.009964273311197758,-0.9600218534469604,-0.020751953125,-0.01513671875,1.0030517578125
0.2796315550804138,0.007137041073292494,0.00969546940177679,-0.9600319862365723,-0.01953125,-0.0146484375,1.0028076171875
0.2796280086040497,0.007245297078043222,0.01069706305861473,-0.9600214958190918,-0.01953125,-0.0155029296875,1.0023193359375
0.27944687008857727,0.007284929510205984,0.010866893455386162,-0.9600719809532166,-0.020263671875,-0.014892578125,1.0020751953125
0.279459148645401,0.007616827730089426,0.009929751977324486,-0.960076093673706,-0.020263671875,-0.0145263671875,1.0025634765625
0.27945560216903687,0.0066270167008042336,0.01004895567893982,-0.9600832462310791,-0.0186767578125,-0.0155029296875,1.0025634765625
0.2794685661792755,0.007625268772244453,0.010037320666015148,-0.9600721001625061,-0.019287109375,-0.015380859375,1.0035400390625
0.279684841632843,0.00757493544369936,0.009924935176968575,-0.9600107073783875,-0.0196533203125,-0.0162353515625,1.00341796875
0.2797008156776428,0.00848041195422411,0.00950892549008131,-0.9600027203559875,-0.021240234375,-0.013916015625,1.002685546875
0.2796950042247772,0.007583428639918566,0.009966851212084293,-0.9600073099136353,-0.01904296875,-0.0159912109375,1.0028076171875
0.2797049283981323,0.006770174019038677,0.009388620965182781,-0.9600162506103516,-0.0186767578125,-0.014404296875,1.0029296875
0.2797148525714874,0.007539062295109034,0.010023105889558792,-0.9600011706352234,-0.0191650390625,-0.0146484375,1.0032958984375
0.27958160638809204,0.007566213142126799,0.01017284207046032,-0.9600381851196289,-0.0208740234375,-0.0146484375,1.0030517578125
0.27958014607429504,0.006571068894118071,0.010067805647850037,-0.9600471258163452,-0.0186767578125,-0.015625,1.0025634765625
0.2795851528644562,0.00732074910774827,0.01073931623250246,-0.9600329995155334,-0.0191650390625,-0.01611328125,1.004150390625
0.27960142493247986,0.007487744092941284,0.00975891575217247,-0.960037350654602,-0.02001953125,-0.015625,1.0030517578125
0.2794105112552643,0.007521050050854683,0.00993803609162569,-0.9600908160209656,-0.0203857421875,-0.0142822265625,1.0020751953125
0.2794191241264343,0.006650670897215605,0.009448882192373276,-0.9600996971130371,-0.0194091796875,-0.0147705078125,1.002685546875
0.2794225215911865,0.006921608466655016,0.010415785945951939,-0.9600868225097656,-0.0186767578125,-0.015380859375,1.0029296875
0.2794451117515564,0.007606223691254854,0.009686823934316635,-0.9600827097892761,-0.019775390625,-0.0150146484375,1.003173828125
0.2794951796531677,0.007601504679769278,0.009675099514424801,-0.9600682854652405,-0.0206298828125,-0.014892578125,1.0035400390625
0.27950775623321533,0.007311648223549128,0.008727658540010452,-0.9600759744644165,-0.02001953125,-0.0142822265625,1.00390625
0.2794992923736572,0.007473949808627367,0.009726179763674736,-0.9600675106048584,-0.020263671875,-0.015380859375,1.0040283203125
0.27949830889701843,0.006602605804800987,0.01023210771381855,-0.9600690007209778,-0.01904296875,-0.015380859375,1.0032958984375
0.27951234579086304,0.007597032468765974,0.010120579972863197,-0.9600586891174316,-0.0201416015625,-0.0152587890625,1.001953125
0.2794177234172821,0.007619640789926052,0.010222707875072956,-0.9600849747657776,-0.01953125,-0.0150146484375,1.0030517578125
0.2794138789176941,0.006625995971262455,0.010351172648370266,-0.9600921869277954,-0.0185546875,-0.0162353515625,1.0035400390625
0.27943626046180725,0.0073553211987018585,0.009677665308117867,-0.9600873589515686,-0.01953125,-0.0146484375,1.0032958984375
0.279437780380249,0.007492751348763704,0.010670469142496586,-0.960075318813324,-0.0203857421875,-0.0162353515625,1.0035400390625
0.27941009402275085,0.007494800724089146,0.010693870484828949,-0.9600830078125,-0.0198974609375,-0.015625,1.0030517578125
0.2794222831726074,0.006816596258431673,0.00996704213321209,-0.9600924849510193,-0.0185546875,-0.0152587890625,1.003173828125
0.2794303894042969,0.007720150984823704,0.010400636121630669,-0.9600785374641418,-0.0203857421875,-0.015625,1.002685546875
0.279435396194458,0.0069136060774326324,0.009819401428103447,-0.9600895047187805,-0.0191650390625,-0.01513671875,1.003173828125
0.2792801558971405,0.0069458456709980965,0.009963108226656914,-0.9601327776908875,-0.0198974609375,-0.0142822265625,1.003173828125
0.2792867124080658,0.0075144171714782715,0.010790256783366203,-0.9601178169250488,-0.0196533203125,-0.015869140625,1.0032958984375
0.27930349111557007,0.0071590617299079895,0.009864996187388897,-0.9601255059242249,-0.01953125,-0.0152587890625,1.00244140625
0.27930477261543274,0.006168276537209749,0.010029351338744164,-0.9601303339004517,-0.01904296875,-0.01513671875,1.0035400390625
0.27932703495025635,0.007165845949202776,0.010136151686310768,-0.9601158499717712,-0.0206298828125,-0.0152587890625,1.0023193359375
0.27924078702926636,0.007182077970355749,0.010213765315711498,-0.9601399302482605,-0.02001953125,-0.0142822265625,1.0037841796875
0.2792632281780243,0.007942444644868374,0.009577913209795952,-0.9601340293884277,-0.0198974609375,-0.01513671875,1.0028076171875
0.2792609930038452,0.007288420107215643,0.010340490378439426,-0.9601319432258606,-0.0198974609375,-0.015625,1.0018310546875
0.2792801856994629,0.007193883415311575,0.009357119910418987,-0.9601372480392456,-0.0194091796875,-0.0147705078125,1.0029296875
0.27943164110183716,0.007160584907978773,0.009272252209484577,-0.960094153881073,-0.0196533203125,-0.0152587890625,1.0030517578125
0.27942633628845215,0.007015906739979982,0.01027211919426918,-0.9600865840911865,-0.0194091796875,-0.0167236328125,1.00341796875
0.2794475853443146,0.00792783871293068,0.009871761314570904,-0.9600775241851807,-0.02001953125,-0.0152587890625,1.003662109375
0.2794451415538788,0.007246008608490229,0.010609461925923824,-0.9600756764411926,-0.0198974609375,-0.016357421875,1.00244140625
0.2792867124080658,0.007280393503606319,0.01077297143638134,-0.9601197242736816,-0.01904296875,-0.0172119140625,1.0035400390625
0.27930977940559387,0.00785160530358553,0.009952154941856861,-0.9601174592971802,-0.0205078125,-0.015380859375,1.0032958984375
0.2793081998825073,0.007003806531429291,0.010497026145458221,-0.9601187109947205,-0.0203857421875,-0.01513671875,1.0030517578125
0.27933579683303833,0.007788765709847212,0.009889363311231136,-0.9601110219955444,-0.0205078125,-0.0147705078125,1.0035400390625
0.2793475091457367,0.007404260337352753,0.008975585922598839,-0.9601196050643921,-0.02001953125,-0.0140380859375,1.0018310546875
0.2794872224330902,0.0073679848574101925,0.00890226848423481,-0.9600797891616821,-0.0196533203125,-0.0166015625,1.001708984375
0.2794942557811737,0.007546954322606325,0.009890573099255562,-0.9600667357444763,-0.0203857421875,-0.015380859375,1.004150390625
0.27951672673225403,0.007990491576492786,0.00900124479085207,-0.960065484046936,-0.020263671875,-0.013916015625,1.00341796875
0.27956894040107727,0.008088739588856697,0.009985792450606823,-0.9600396156311035,-0.0198974609375,-0.014892578125,1.00244140625
0.2795664370059967,0.007386992685496807,0.010707970708608627,-0.9600382447242737,-0.019775390625,-0.017333984375,1.0023193359375
0.2795823812484741,0.00748030049726367,0.009728317148983479,-0.9600433707237244,-0.019775390625,-0.0140380859375,1.0028076171875
0.27960410714149475,0.008306956849992275,0.009180144406855106,-0.9600356221199036,-0.0203857421875,-0.013916015625,1.0028076171875
0.2794560194015503,0.008321410976350307,0.009302612394094467,-0.9600774645805359,-0.0198974609375,-0.015869140625,1.0023193359375
0.2794502377510071,0.0074363648891448975,0.009775720536708832,-0.9600816965103149,-0.018798828125,-0.015625,1.0028076171875
0.27946826815605164,0.0072151971980929375,0.008808166719973087,-0.9600874185562134,-0.01953125,-0.01416015625,1.00341796875
0.2794753313064575,0.007859696634113789,0.009585825726389885,-0.960072934627533,-0.0201416015625,-0.0137939453125,1.0020751953125
0.27937713265419006,0.007870560511946678,0.009679052047431469,-0.9601004123687744,-0.0203857421875,-0.01513671875,1.0023193359375
0.2793748378753662,0.007234277669340372,0.010460161603987217,-0.9600979089736938,-0.0196533203125,-0.016357421875,1.00244140625
0.279396116733551,0.00740514462813735,0.009485745802521706,-0.9601005911827087,-0.01953125,-0.013671875,1.002685546875
0.27941322326660156,0.007943885400891304,0.008661528117954731,-0.9600991010665894,-0.0198974609375,-0.0130615234375,1.0028076171875
0.27924519777297974,0.007970785722136497,0.008827442303299904,-0.9601461887359619,-0.0208740234375,-0.016357421875,1.00244140625
0.27924472093582153,0.007878398522734642,0.00982810091227293,-0.9601374268531799,-0.02099609375,-0.01611328125,1.0029296875
0.27924323081970215,0.007028826978057623,0.010355878621339798,-0.9601387977600098,-0.019775390625,-0.0155029296875,1.0025634765625
0.2792607843875885,0.0077032712288200855,0.009620800614356995,-0.9601362347602844,-0.02001953125,-0.0146484375,1.002685546875
0.2792585790157318,0.007156122475862503,0.010467862710356712,-0.9601322412490845,-0.019775390625,-0.0157470703125,1.0035400390625
0.27914997935295105,0.007673200685530901,0.009736616164445877,-0.9601675868034363,-0.02001953125,-0.0152587890625,1.002197265625
0.2791447341442108,0.006732005160301924,0.010083237662911415,-0.9601724743843079,-0.019287109375,-0.01513671875,1.0023193359375
0.2791532278060913,0.007393558509647846,0.010830387473106384,-0.960157036781311,-0.0201416015625,-0.0166015625,1.002685546875
0.2792114019393921,0.007375780958682299,0.010806680656969547,-0.960140585899353,-0.019775390625,-0.015625,1.0023193359375
0.2792252004146576,0.006809178274124861,0.0099913589656353,-0.9601495862007141,-0.0186767578125,-0.015380859375,1.0025634765625
0.2792466878890991,0.0076685333624482155,0.009487498551607132,-0.9601419568061829,-0.0196533203125,-0.014404296875,1.0020751953125
0.27924102544784546,0.007575348485261202,0.01048285048455,-0.960133969783783,-0.0203857421875,-0.0155029296875,1.003173828125
0.27952542901039124,0.007507519796490669,0.010351431556046009,-0.9600530862808228,-0.0198974609375,-0.01611328125,1.0030517578125
0.27955183386802673,0.007659676019102335,0.009374548681080341,-0.9600542783737183,-0.02001953125,-0.0140380859375,1.001708984375
0.2795557379722595,0.007391465362161398,0.01034298725426197,-0.960045337677002,-0.02001953125,-0.0150146484375,1.0020751953125
0.2795604467391968,0.006415762938559055,0.010123934596776962,-0.9600533843040466,-0.0185546875,-0.015869140625,1.0032958984375
0.2795785963535309,0.007414119318127632,0.010115186683833599,-0.9600409269332886,-0.0201416015625,-0.0152587890625,1.0029296875
0.27952200174331665,0.007429323624819517,0.010175680741667747,-0.9600566029548645,-0.0196533203125,-0.0150146484375,1.002685546875
0.2795349061489105,0.006790555082261562,0.009410645812749863,-0.9600653648376465,-0.0186767578125,-0.0145263671875,1.0037841796875
0.27954113483428955,0.007313861045986414,0.01026188675314188,-0.9600510597229004,-0.0194091796875,-0.0152587890625,1.0020751953125
0.279559850692749,0.007163207978010178,0.00928559247404337,-0.960056722164154,-0.0196533203125,-0.0152587890625,1.0028076171875
0.27985435724258423,0.007082205265760422,0.009097042493522167,-0.9599732756614685,-0.0191650390625,-0.014892578125,1.0018310546875
0.27986106276512146,0.0076862843707203865,0.009906838648021221,-0.9599586129188538,-0.0194091796875,-0.0140380859375,1.0020751953125
0.2798600494861603,0.006794793996959925,0.01037545409053564,-0.9599607586860657,-0.01953125,-0.0155029296875,1.001220703125
0.2798823416233063,0.007582762744277716,0.009766675531864166,-0.9599547982215881,-0.01953125,-0.0152587890625,1.0015869140625
0.27973753213882446,0.007607363164424896,0.009913763962686062,-0.9599951505661011,-0.01953125,-0.0150146484375,1.0030517578125
0.27974048256874084,0.006607975345104933,0.0098882419988513,-0.9600020051002502,-0.01953125,-0.0150146484375,1.0032958984375
0.2797467112541199,0.007441521622240543,0.010452154092490673,-0.9599880576133728,-0.021484375,-0.016357421875,1.0029296875
0.2797695994377136,0.00816210824996233,0.00977205391973257,-0.9599827527999878,-0.0208740234375,-0.0147705078125,1.00244140625
0.2796194851398468,0.008181042969226837,0.009900026954710484,-0.9600250124931335,-0.0191650390625,-0.0146484375,1.0023193359375
0.2796211838722229,0.007190273143351078,0.010028299875557423,-0.9600311517715454,-0.0191650390625,-0.015380859375,1.0025634765625
0.279617041349411,0.007252571173012257,0.011036036536097527,-0.9600207805633545,-0.019775390625,-0.01611328125,1.002685546875
0.279643714427948,0.0074211228638887405,0.010061191394925117,-0.960022509098053,-0.0198974609375,-0.0150146484375,1.001708984375
0.27959689497947693,0.0074277459643781185,0.010115886107087135,-0.9600354433059692,-0.019287109375,-0.0157470703125,1.0029296875
0.2796040177345276,0.007121539209038019,0.009173545055091381,-0.9600452184677124,-0.01953125,-0.0146484375,1.0028076171875
0.27960947155952454,0.007618413306772709,0.010049446485936642,-0.9600310921669006,-0.020263671875,-0.0150146484375,1.003173828125
0.2796292006969452,0.008590650744736195,0.009838530793786049,-0.9600192308425903,-0.0206298828125,-0.014892578125,1.0023193359375
0.2795047461986542,0.008611427620053291,0.009967896156013012,-0.9600539207458496,-0.0198974609375,-0.0152587890625,1.0029296875
0.2794997990131378,0.007653707638382912,0.010269573889672756,-0.9600603580474854,-0.01904296875,-0.016357421875,1.001708984375
0.2794973850250244,0.006901403423398733,0.01093731913715601,-0.9600593447685242,-0.0198974609375,-0.016357421875,1.0013427734375
0.27951523661613464,0.007448211777955294,0.010112319141626358,-0.9600591659545898,-0.020263671875,-0.0145263671875,1.00341796875
0.2793648838996887,0.007477293722331524,0.01028263010084629,-0.9601007699966431,-0.0205078125,-0.014404296875,1.003173828125
0.27937406301498413,0.006646228954195976,0.0097420709207654,-0.9601098895072937,-0.01904296875,-0.0152587890625,1.0020751953125
0.2794036567211151,0.007911239750683308,0.009820575825870037,-0.9600908756256104,-0.02099609375,-0.014404296875,1.0035400390625
0.2792423665523529,0.007940330542623997,0.009990708902478218,-0.960135817527771,-0.020263671875,-0.0157470703125,1.002685546875
0.2792401909828186,0.006939231418073177,0.009978940710425377,-0.9601443409919739,-0.0196533203125,-0.01513671875,1.0029296875
0.2792617678642273,0.007788461167365313,0.009450817480683327,-0.9601369500160217,-0.0198974609375,-0.0142822265625,1.002685546875
0.2792600095272064,0.007445553783327341,0.010400819592177868,-0.9601303935050964,-0.0201416015625,-0.0162353515625,1.0032958984375
0.27943167090415955,0.007395333144813776,0.0102762496098876,-0.9600821137428284,-0.0196533203125,-0.0159912109375,1.0029296875
0.27942466735839844,0.0065643214620649815,0.010848098434507847,-0.9600839018821716,-0.0194091796875,-0.016357421875,1.0028076171875
0.2794421315193176,0.007374288979917765,0.010277580469846725,-0.9600792527198792,-0.0206298828125,-0.0147705078125,1.0030517578125
0.2794589698314667,0.00767276156693697,0.009334342554211617,-0.9600816369056702,-0.02001953125,-0.0133056640625,1.00341796875
0.27943259477615356,0.0076814075000584126,0.009371098130941391,-0.9600889086723328,-0.02001953125,-0.0157470703125,1.00244140625
0.27942559123039246,0.007265088614076376,0.0102850291877985,-0.9600847959518433,-0.019775390625,-0.0157470703125,1.004150390625
0.2794429361820221,0.008051344193518162,0.009688212536275387,-0.9600796699523926,-0.0203857421875,-0.014892578125,1.003173828125
0.2794390022754669,0.007090594619512558,0.009411768987774849,-0.9600911140441895,-0.0198974609375,-0.01416015625,1.00390625
0.2793111801147461,0.0071090217679739,0.009532191790640354,-0.960127055644989,-0.0191650390625,-0.015625,1.0023193359375
0.2793107032775879,0.007535641547292471,0.01044060755521059,-0.9601144790649414,-0.0201416015625,-0.015625,1.0028076171875
0.27933213114738464,0.0076800137758255005,0.009455830790102482,-0.9601173400878906,-0.0201416015625,-0.01416015625,1.0030517578125
0.27935081720352173,0.008663310669362545,0.009274066425859928,-0.9601051807403564,-0.0206298828125,-0.013671875,1.004150390625
0.2791987955570221,0.008683521300554276,0.009455785155296326,-0.9601474404335022,-0.02001953125,-0.0166015625,1.0037841796875
0.27919822931289673,0.007782714441418648,0.00990582350641489,-0.9601508975028992,-0.0194091796875,-0.0157470703125,1.0032958984375
0.27921557426452637,0.008216786198318005,0.009009883739054203,-0.9601510167121887,-0.020751953125,-0.013427734375,1.0028076171875
0.27920883893966675,0.007937148213386536,0.009975298307836056,-0.9601457715034485,-0.0208740234375,-0.0164794921875,1.0025634765625
0.27922600507736206,0.007926824502646923,0.009984714910387993,-0.9601408243179321,-0.0191650390625,-0.0169677734375,1.00341796875
0.2792358100414276,0.006988026667386293,0.010328130796551704,-0.9601415991783142,-0.019775390625,-0.015625,1.00390625
0.27926334738731384,0.007743129972368479,0.009679173119366169,-0.9601346254348755,-0.0198974609375,-0.0150146484375,1.003662109375
0.2792622745037079,0.0075779869221150875,0.010670465417206287,-0.9601256251335144,-0.0203857421875,-0.0146484375,1.003173828125
0.2792660593986511,0.0067520453594625,0.010128511115908623,-0.9601366519927979,-0.0191650390625,-0.015869140625,1.00244140625
0.27943915128707886,0.006718291901051998,0.01004334632307291,-0.9600874185562134,-0.0201416015625,-0.01513671875,1.002685546875
0.27945518493652344,0.007616237737238407,0.009619639255106449,-0.9600803256034851,-0.0203857421875,-0.013916015625,1.0018310546875
0.2794516682624817,0.0066220988519489765,0.00977944117039442,-0.9600871205329895,-0.01953125,-0.0145263671875,1.0035400390625
0.2794565260410309,0.007386007346212864,0.010438475757837296,-0.9600732326507568,-0.0198974609375,-0.015869140625,1.0030517578125
0.27967363595962524,0.007328199688345194,0.010327747091650963,-0.9600116014480591,-0.0185546875,-0.015625,1.0030517578125
0.2796810269355774,0.0066672726534307,0.009585407562553883,-0.9600220322608948,-0.019287109375,-0.015380859375,1.00244140625
0.27969858050346375,0.007664165459573269,0.009584792889654636,-0.9600093960762024,-0.0208740234375,-0.013916015625,1.0028076171875
0.27969133853912354,0.007083146367222071,0.01040866319090128,-0.9600074887275696,-0.0196533203125,-0.0155029296875,1.0023193359375
0.2796635329723358,0.0070877959951758385,0.010435622185468674,-0.9600152373313904,-0.0181884765625,-0.0157470703125,1.0035400390625
0.2796642482280731,0.006141980178654194,0.010113496333360672,-0.9600250124931335,-0.01904296875,-0.01611328125,1.00390625
0.27968403697013855,0.007114213891327381,0.009900321252644062,-0.9600147604942322,-0.0205078125,-0.014404296875,1.0028076171875
0.27969470620155334,0.008096153847873211,0.010085579007863998,-0.9600018858909607,-0.0198974609375,-0.0150146484375,1.0030517578125
0.27969279885292053,0.007102966774255037,0.01003349106758833,-0.9600109457969666,-0.01806640625,-0.015625,1.002685546875
0.27945438027381897,0.007138826884329319,0.010258454829454422,-0.9600776433944702,-0.0189208984375,-0.0164794921875,1.003173828125
0.27946963906288147,0.008110660128295422,0.010514423251152039,-0.9600627422332764,-0.0201416015625,-0.0157470703125,1.00341796875
0.2794836163520813,0.007510138675570488,0.009728650562465191,-0.9600719213485718,-0.020263671875,-0.0147705078125,1.0030517578125
0.2794788181781769,0.006548883859068155,0.010039306245744228,-0.9600771069526672,-0.017333984375,-0.0162353515625,1.001953125
0.2792976498603821,0.006587618496268988,0.010237008333206177,-0.9601272940635681,-0.0211181640625,-0.01513671875,1.0035400390625
0.27931898832321167,0.007487887516617775,0.009827449917793274,-0.9601188898086548,-0.0211181640625,-0.013671875,1.002197265625
0.27932098507881165,0.00649021053686738,0.00991675816476345,-0.9601246118545532,-0.0191650390625,-0.0150146484375,1.002197265625
0.27932068705558777,0.006275624502450228,0.01089857704937458,-0.9601155519485474,-0.0181884765625,-0.0174560546875,1.00244140625
0.2794198989868164,0.006259378045797348,0.01084823627024889,-0.9600873589515686,-0.0198974609375,-0.0157470703125,1.001953125
0.2794373631477356,0.007005191408097744,0.010188895277678967,-0.9600843191146851,-0.0216064453125,-0.0118408203125,1.0023193359375
0.27943024039268494,0.006510123610496521,0.01106942631304264,-0.9600802063941956,-0.0189208984375,-0.016845703125,1.002197265625
0.2794480323791504,0.007114093285053968,0.010288827121257782,-0.9600794315338135,-0.0189208984375,-0.0172119140625,1.0028076171875
0.27961909770965576,0.007065058220177889,0.010190200060606003,-0.9600309729576111,-0.0194091796875,-0.015380859375,1.00244140625
0.27964600920677185,0.007915208116173744,0.009670959785580635,-0.9600217938423157,-0.0211181640625,-0.013671875,1.0025634765625
0.27964410185813904,0.007139210589230061,0.010296503081917763,-0.9600220322608948,-0.018798828125,-0.016845703125,1.0028076171875
0.2796430289745331,0.006227273494005203,0.010713241063058376,-0.9600240588188171,-0.018798828125,-0.0164794921875,1.0040283203125
0.27978113293647766,0.006198290269821882,0.010620729066431522,-0.959985077381134,-0.0203857421875,-0.0152587890625,1.0030517578125
0.27980247139930725,0.007121117785573006,0.010244102217257023,-0.9599766135215759,-0.02099609375,-0.0145263671875,1.0037841796875
0.27979639172554016,0.006203892175108194,0.010650627315044403,-0.959980309009552,-0.0191650390625,-0.0159912109375,1.0030517578125
0.27981293201446533,0.007105848286300898,0.010253307409584522,-0.9599735140800476,-0.0191650390625,-0.0159912109375,1.00341796875
0.2797659635543823,0.007125081028789282,0.010305785574018955,-0.9599864482879639,-0.0206298828125,-0.0145263671875,1.002197265625
0.27979350090026855,0.00789185892790556,0.009663686156272888,-0.959979236125946,-0.0203857421875,-0.0145263671875,1.0025634765625
0.279787540435791,0.007002196274697781,0.010127509012818336,-0.9599830508232117,-0.0181884765625,-0.0164794921875,1.0032958984375
0.27979952096939087,0.0075918203219771385,0.010943920351564884,-0.9599660634994507,-0.02001953125,-0.0162353515625,1.003662109375
0.2797805666923523,0.007603503298014402,0.010971340350806713,-0.9599711894989014,-0.02099609375,-0.0146484375,1.0025634765625
0.2797951102256775,0.0075106448493897915,0.009987877681851387,-0.9599785208702087,-0.019775390625,-0.0142822265625,1.0028076171875
0.27979302406311035,0.006513967644423246,0.009955904446542263,-0.9599866271018982,-0.0191650390625,-0.0152587890625,1.003662109375
0.2798093557357788,0.007498194929212332,0.010124774649739265,-0.9599728584289551,-0.0201416015625,-0.0152587890625,1.0023193359375
0.2798295021057129,0.00845712423324585,0.009878862649202347,-0.9599616527557373,-0.02099609375,-0.0147705078125,1.0029296875
0.2796681821346283,0.008483625017106533,0.010048898868262768,-0.960006594657898,-0.0201416015625,-0.0146484375,1.0025634765625
0.27966994047164917,0.007483408786356449,0.010162738151848316,-0.960013210773468,-0.018310546875,-0.01611328125,1.0025634765625
0.27968260645866394,0.007212812080979347,0.00920975673943758,-0.9600211977958679,-0.0198974609375,-0.0150146484375,1.0032958984375
0.2796885073184967,0.007748065050691366,0.01006648875772953,-0.9600067734718323,-0.02099609375,-0.015380859375,1.0023193359375
0.2795121967792511,0.007783645763993263,0.01024597231298685,-0.9600560069084167,-0.0198974609375,-0.0135498046875,1.0025634765625
0.2795144021511078,0.0067826928570866585,0.010273301973938942,-0.960062563419342,-0.0184326171875,-0.01611328125,1.0035400390625
0.2795310616493225,0.007765072863548994,0.0104240532964468,-0.9600486159324646,-0.0206298828125,-0.0157470703125,1.0032958984375
0.27955934405326843,0.008248683996498585,0.009567911736667156,-0.9600452780723572,-0.02099609375,-0.014892578125,1.002685546875
0.27939847111701965,0.008260142989456654,0.009728454984724522,-0.9600904583930969,-0.0191650390625,-0.0140380859375,1.0028076171875
0.2793920934200287,0.0067337630316615105,0.010798913426697254,-0.9600927233695984,-0.01953125,-0.015380859375,1.0029296875
0.2794146239757538,0.007560134399682283,0.010256487876176834,-0.9600860476493835,-0.020751953125,-0.0150146484375,1.00341796875
0.2792394757270813,0.007586860563606024,0.010417331010103226,-0.9601349830627441,-0.0191650390625,-0.015380859375,1.003173828125
0.2792448401451111,0.006803274154663086,0.009792043827474117,-0.9601459503173828,-0.0179443359375,-0.0147705078125,1.003662109375
0.2792379558086395,0.006142088677734137,0.010554896667599678,-0.9601442813873291,-0.018310546875,-0.015625,1.0023193359375
0.279261976480484,0.007139704655855894,0.010517221875488758,-0.9601308703422546,-0.021484375,-0.015625,1.002685546875
0.2791239023208618,0.007165191695094109,0.010647003538906574,-0.9601693749427795,-0.0201416015625,-0.0147705078125,1.0037841796875
0.27913668751716614,0.006538986694067717,0.009879622608423233,-0.9601782560348511,-0.0181884765625,-0.015380859375,1.0030517578125
0.2791534960269928,0.007535723503679037,0.00999414548277855,-0.9601649045944214,-0.018798828125,-0.0152587890625,1.00341796875
0.27916932106018066,0.008453392423689365,0.009616144932806492,-0.9601565599441528,-0.020263671875,-0.014892578125,1.002197265625
0.2791682779788971,0.00757105415686965,0.010094176977872849,-0.9601592421531677,-0.019287109375,-0.01611328125,1.00244140625
0.27903664112091064,0.0075940294191241264,0.010246675461530685,-0.960195779800415,-0.01904296875,-0.01611328125,1.002197265625
0.2790411412715912,0.006605134811252356,0.010064705274999142,-0.9602037668228149,-0.0189208984375,-0.015625,1.002685546875
0.279055655002594,0.007583013270050287,0.009880512952804565,-0.9601942300796509,-0.0203857421875,-0.0146484375,1.003173828125
0.2790634036064148,0.00850206334143877,0.010290546342730522,-0.9601799845695496,-0.0208740234375,-0.014892578125,1.003662109375
0.27924686670303345,0.00844453927129507,0.010197884403169155,-0.9601280689239502,-0.0189208984375,-0.01708984375,1.0025634765625
0.2792544960975647,0.007442193105816841,0.010230911895632744,-0.9601338505744934,-0.0205078125,-0.015380859375,1.0029296875
0.2792772352695465,0.008134095929563046,0.009518864564597607,-0.960128903388977,-0.0211181640625,-0.0135498046875,1.00244140625
0.2792748510837555,0.007606646977365017,0.010374199599027634,-0.9601250886917114,-0.020263671875,-0.0164794921875,1.0032958984375
0.2795489728450775,0.00752837210893631,0.01022990234196186,-0.9600474834442139,-0.019287109375,-0.015869140625,1.0030517578125
0.27955472469329834,0.00656312657520175,0.009950247593224049,-0.9600558280944824,-0.01953125,-0.0155029296875,1.004638671875
0.2795681357383728,0.007553811650723219,0.009881622157990932,-0.960045337677002,-0.0205078125,-0.0146484375,1.00341796875
0.2795689105987549,0.006602298468351364,0.009592810645699501,-0.9600550532341003,-0.0194091796875,-0.0147705078125,1.0015869140625
0.2794058918952942,0.006638396065682173,0.009761685505509377,-0.9601004719734192,-0.018310546875,-0.014404296875,1.0030517578125
0.27941328287124634,0.00764035526663065,0.009776034392416477,-0.9600908160209656,-0.0201416015625,-0.0145263671875,1.002197265625
0.27941271662712097,0.008092214353382587,0.01067637000232935,-0.9600777626037598,-0.0206298828125,-0.0150146484375,1.001708984375
0.27941879630088806,0.007343614473938942,0.010013973340392113,-0.9600890278816223,-0.0191650390625,-0.014892578125,1.0029296875
0.27924367785453796,0.007369892206043005,0.010176918469369411,-0.9601380825042725,-0.0185546875,-0.015625,1.0018310546875
0.27927154302597046,0.007983287796378136,0.009392092004418373,-0.9601330757141113,-0.0205078125,-0.0140380859375,1.0035400390625
0.2792699635028839,0.007206794805824757,0.010040473192930222,-0.9601331353187561,-0.020263671875,-0.01416015625,1.00244140625
0.2792763411998749,0.007764394860714674,0.010878301225602627,-0.960117757320404,-0.0198974609375,-0.015625,1.0040283203125
0.27928224205970764,0.007015889044851065,0.010222678072750568,-0.9601290822029114,-0.02001953125,-0.01611328125,1.003173828125
0.27907678484916687,0.007054694462567568,0.010423300787806511,-0.960186243057251,-0.0208740234375,-0.015869140625,1.0032958984375
0.2791045010089874,0.007563094608485699,0.009574102237820625,-0.9601832032203674,-0.019775390625,-0.0147705078125,1.002685546875
0.27910271286964417,0.00719018978998065,0.010506809689104557,-0.9601768255233765,-0.019775390625,-0.015625,1.00244140625
0.2791202962398529,0.0076866536401212215,0.009644797071814537,-0.960176944732666,-0.0198974609375,-0.015625,1.003662109375
0.2789307236671448,0.007717292755842209,0.009830612689256668,-0.9602298736572266,-0.02001953125,-0.01513671875,1.003173828125
0.2789424955844879,0.008337758481502533,0.010614311322569847,-0.9602130055427551,-0.020751953125,-0.014892578125,1.00146484375
0.2789476811885834,0.007521136198192835,0.010035313665866852,-0.9602243900299072,-0.01953125,-0.014892578125,1.0029296875
0.27895116806030273,0.006516245659440756,0.009967967867851257,-0.9602314829826355,-0.0189208984375,-0.015380859375,1.0032958984375
0.27880561351776123,0.0065498813055455685,0.010093224234879017,-0.9602721929550171,-0.0196533203125,-0.013916015625,1.003662109375
0.2788256108760834,0.007517295889556408,0.009850847534835339,-0.9602617621421814,-0.01953125,-0.0150146484375,1.0020751953125
0.27882346510887146,0.0068850526586174965,0.010640593245625496,-0.9602587819099426,-0.0196533203125,-0.015625,1.0032958984375
0.27884575724601746,0.007312607020139694,0.009741540066897869,-0.9602587223052979,-0.0194091796875,-0.015380859375,1.0025634765625
0.279081791639328,0.007240889128297567,0.009595046751201153,-0.960192084312439,-0.02001953125,-0.01416015625,1.003662109375
0.2790786623954773,0.007406451739370823,0.010588233359158039,-0.9601812958717346,-0.0198974609375,-0.015625,1.0018310546875
0.27908676862716675,0.006788377184420824,0.00981446448713541,-0.9601918458938599,-0.0191650390625,-0.0155029296875,1.002685546875
0.2791035771369934,0.0077809966169297695,0.009917284362018108,-0.9601783752441406,-0.0196533203125,-0.014892578125,1.0025634765625
0.2792366147041321,0.007747366093099117,0.009857130236923695,-0.9601404070854187,-0.01904296875,-0.015380859375,1.0030517578125
0.27923333644866943,0.00797317549586296,0.010843108408153057,-0.960128903388977,-0.0211181640625,-0.015869140625,1.0020751953125
0.27924326062202454,0.00745190167799592,0.010007430799305439,-0.9601393938064575,-0.02001953125,-0.01513671875,1.0018310546875
0.2792552709579468,0.008056984283030033,0.010814996436238289,-0.9601221680641174,-0.0205078125,-0.0155029296875,1.0029296875
0.27926552295684814,0.007544987834990025,0.009956209920346737,-0.9601326584815979,-0.0191650390625,-0.0140380859375,1.0020751953125
0.279150128364563,0.007565526757389307,0.010069876909255981,-0.9601648449897766,-0.0203857421875,-0.014892578125,1.0029296875
0.2791542708873749,0.007413347717374563,0.01106316689401865,-0.9601538777351379,-0.020263671875,-0.015625,1.002197265625
0.27917009592056274,0.007471049670130014,0.010080688633024693,-0.9601597189903259,-0.0201416015625,-0.0157470703125,1.001708984375
0.27918481826782227,0.006950596813112497,0.009218402206897736,-0.9601680040359497,-0.01953125,-0.0147705078125,1.001953125
0.27945685386657715,0.006880030035972595,0.00905733834952116,-0.9600908160209656,-0.0194091796875,-0.01513671875,1.00244140625
0.27945753931999207,0.006817972287535667,0.010065504349768162,-0.960081160068512,-0.0186767578125,-0.01513671875,1.00244140625
0.27947062253952026,0.00771108316257596,0.010505021549761295,-0.9600658416748047,-0.0206298828125,-0.015869140625,1.001953125
0.27948692440986633,0.007848246954381466,0.00952608697116375,-0.9600701928138733,-0.0206298828125,-0.01513671875,1.0029296875
0.2797805666923523,0.00776777183637023,0.009375698864459991,-0.9599868059158325,-0.018798828125,-0.0145263671875,1.0010986328125
0.2797785699367523,0.007128485012799501,0.010150733403861523,-0.9599844813346863,-0.0191650390625,-0.01611328125,1.0023193359375
0.2797907590866089,0.00799794215708971,0.01064907293766737,-0.959968626499176,-0.019775390625,-0.015625,1.00244140625
0.27981045842170715,0.007871565409004688,0.009669343009591103,-0.9599744081497192,-0.0208740234375,-0.014892578125,1.0018310546875
0.2799573242664337,0.007826407440006733,0.009586639702320099,-0.9599326252937317,-0.01904296875,-0.0152587890625,1.0018310546875
0.27995550632476807,0.00751743046566844,0.010542819276452065,-0.9599255919456482,-0.0203857421875,-0.015625,1.001953125
0.2799733877182007,0.0072487411089241505,0.009589307010173798,-0.9599325656890869,-0.019287109375,-0.0142822265625,1.002685546875
0.2799752354621887,0.007870322093367577,0.010385560803115368,-0.9599188566207886,-0.0203857421875,-0.01513671875,1.0037841796875
0.27998244762420654,0.007185621652752161,0.009667306207120419,-0.9599296450614929,-0.02001953125,-0.0150146484375,1.0028076171875
0.280248761177063,0.0071207988075912,0.009519807994365692,-0.9598537683486938,-0.0205078125,-0.0150146484375,1.0023193359375
0.2802509665489197,0.007746050134301186,0.010298023000359535,-0.9598402976989746,-0.01953125,-0.0146484375,1.0020751953125
0.28026655316352844,0.007268644403666258,0.009415492415428162,-0.9598485827445984,-0.0196533203125,-0.014404296875,1.0025634765625
0.28026267886161804,0.007365883328020573,0.01041538268327713,-0.9598385691642761,-0.019775390625,-0.0152587890625,1.00244140625
0.28047654032707214,0.007314689457416534,0.010290858335793018,-0.9597778916358948,-0.020751953125,-0.0150146484375,1.002685546875
0.28049930930137634,0.007864462211728096,0.009467723779380322,-0.9597753882408142,-0.0203857421875,-0.0140380859375,1.0025634765625
0.28049734234809875,0.007150774821639061,0.010177433490753174,-0.9597742557525635,-0.020263671875,-0.01416015625,1.0025634765625
0.28051072359085083,0.008069826290011406,0.01057091448456049,-0.9597587585449219,-0.02001953125,-0.015625,1.001953125
0.28049615025520325,0.008068216033279896,0.01058886293321848,-0.9597628712654114,-0.0198974609375,-0.015380859375,1.002197265625
0.2805057764053345,0.007498685270547867,0.00977465882897377,-0.9597733020782471,-0.0198974609375,-0.0145263671875,1.0025634765625
0.2805202007293701,0.00694155553355813,0.008952867239713669,-0.959781289100647,-0.0194091796875,-0.01416015625,1.000732421875
0.28051894903182983,0.007300358731299639,0.009893900714814663,-0.9597697257995605,-0.0201416015625,-0.015625,1.003173828125
0.28078803420066833,0.007229938171803951,0.009756872430443764,-0.9596930146217346,-0.01953125,-0.0157470703125,1.0037841796875
0.28078365325927734,0.006252502556890249,0.0100216343998909,-0.9596984386444092,-0.019287109375,-0.0147705078125,1.0020751953125
0.28079691529273987,0.007248513400554657,0.00998943392187357,-0.9596878290176392,-0.020263671875,-0.014892578125,1.0025634765625
0.2807965874671936,0.007695651147514582,0.010887798853218555,-0.9596747159957886,-0.02001953125,-0.015625,1.0015869140625
0.28065580129623413,0.007715250365436077,0.011013147421181202,-0.9597143530845642,-0.01953125,-0.0162353515625,1.0030517578125
0.280676007270813,0.0076476470567286015,0.010023897513747215,-0.9597198367118835,-0.0203857421875,-0.0150146484375,1.002197265625
0.2806801497936249,0.00665617361664772,0.009890022687613964,-0.9597273468971252,-0.019287109375,-0.01513671875,1.001953125
0.2806924283504486,0.007527088280767202,0.010398849844932556,-0.9597119688987732,-0.0203857421875,-0.0157470703125,1.0013427734375
0.28070056438446045,0.006526983808726072,0.010337995365262032,-0.9597175121307373,-0.0198974609375,-0.015869140625,1.002197265625
0.28094935417175293,0.006474784575402737,0.01021549478173256,-0.9596464037895203,-0.0203857421875,-0.0166015625,1.002197265625
0.28097161650657654,0.007104805670678616,0.009447900578379631,-0.9596433043479919,-0.0191650390625,-0.0137939453125,1.0023193359375
0.2809806168079376,0.00784933753311634,0.010129045695066452,-0.9596279263496399,-0.020751953125,-0.0150146484375,1.0003662109375
0.28097784519195557,0.007223556749522686,0.010906103998422623,-0.9596251249313354,-0.020263671875,-0.016357421875,1.0020751953125
0.281158447265625,0.007176216691732407,0.010789955034852028,-0.9595738053321838,-0.0191650390625,-0.016357421875,1.0018310546875
0.28117451071739197,0.007310495711863041,0.009809850715100765,-0.9595787525177002,-0.0196533203125,-0.01513671875,1.0020751953125
0.2811931371688843,0.008296276442706585,0.00970866996794939,-0.9595662951469421,-0.0213623046875,-0.0140380859375,1.003173828125
0.28119081258773804,0.00757342204451561,0.010406025685369968,-0.9595655798912048,-0.0203857421875,-0.015869140625,1.0029296875
0.2810637652873993,0.0075765084475278854,0.010512077249586582,-0.959601640701294,-0.0172119140625,-0.0142822265625,1.0030517578125
0.2810865044593811,0.007991495542228222,0.009608079679310322,-0.959601104259491,-0.020751953125,-0.01416015625,1.001708984375
0.2810937166213989,0.008275720290839672,0.010566368699073792,-0.959586501121521,-0.0220947265625,-0.0159912109375,1.0028076171875
0.2810914218425751,0.007277210243046284,0.010517134331166744,-0.9595957398414612,-0.01806640625,-0.0166015625,1.003173828125
0.2810143232345581,0.007280717603862286,0.010596100240945816,-0.9596174955368042,-0.0169677734375,-0.01806640625,1.0029296875
0.281036913394928,0.008082699030637741,0.010012922808527946,-0.9596107006072998,-0.0238037109375,-0.01123046875,1.00146484375
0.28105393052101135,0.009087161161005497,0.010046259500086308,-0.9595963954925537,-0.023193359375,-0.01416015625,1.00048828125
0.2810491919517517,0.008121351711452007,0.010308337397873402,-0.9596036672592163,-0.016357421875,-0.018310546875,1.0040283203125
0.28104478120803833,0.007136004511266947,0.010504485107958317,-0.9596107006072998,-0.018310546875,-0.016845703125,1.001953125
0.2809144854545593,0.0071727135218679905,0.010617019608616829,-0.9596473574638367,-0.02197265625,-0.01318359375,1.001220703125
0.2809358835220337,0.00809470470994711,0.010229725390672684,-0.9596378803253174,-0.0230712890625,-0.013671875,1.0008544921875
0.280931293964386,0.007114539388567209,0.010451453737914562,-0.959644615650177,-0.0157470703125,-0.0181884765625,1.003173828125
0.2809489071369171,0.00780065543949604,0.009733719751238823,-0.959641695022583,-0.020263671875,-0.0147705078125,1.002685546875
0.28072330355644226,0.007847649976611137,0.00996596459299326,-0.9597049355506897,-0.0235595703125,-0.011962890625,1.002197265625
0.2807222008705139,0.006954893935471773,0.010415376164019108,-0.9597073793411255,-0.0198974609375,-0.0155029296875,1.0020751953125
0.2807267904281616,0.005984873976558447,0.010173658840358257,-0.9597151279449463,-0.0169677734375,-0.0162353515625,1.003173828125
0.2807421088218689,0.0069363415241241455,0.00989558082073927,-0.9597071409225464,-0.0194091796875,-0.0147705078125,1.0018310546875
0.28085461258888245,0.006922724191099405,0.009832772426307201,-0.9596749544143677,-0.02294921875,-0.012939453125,1.00146484375
0.2808583974838257,0.006558165419846773,0.010769286192953587,-0.9596664309501648,-0.0186767578125,-0.01708984375,1.002197265625
0.28085583448410034,0.00555390166118741,0.010693092830479145,-0.9596744179725647,-0.0172119140625,-0.017333984375,1.0025634765625
0.2808714509010315,0.006512257270514965,0.010445120744407177,-0.9596664309501648,-0.021484375,-0.0145263671875,1.0010986328125
0.28099340200424194,0.00649386178702116,0.010378952138125896,-0.9596315622329712,-0.0213623046875,-0.014404296875,1.001953125
0.2810116112232208,0.00749438488855958,0.010403580032289028,-0.9596187472343445,-0.0198974609375,-0.015869140625,1.002197265625
0.28100937604904175,0.006496713031083345,0.010339123196899891,-0.9596273899078369,-0.0172119140625,-0.0164794921875,1.0020751953125
0.2810265123844147,0.007261434104293585,0.009713249281048775,-0.9596233367919922,-0.0198974609375,-0.013916015625,1.001953125
0.28116944432258606,0.0072406744584441185,0.009622703306376934,-0.9595825672149658,-0.0211181640625,-0.0135498046875,1.0037841796875
0.2811637818813324,0.006340624764561653,0.010047756135463715,-0.9595862627029419,-0.0177001953125,-0.015869140625,1.002197265625
0.2811621129512787,0.006573292426764965,0.011026675812900066,-0.9595744013786316,-0.0184326171875,-0.0167236328125,1.0028076171875
0.2811800241470337,0.007235309109091759,0.010290115140378475,-0.9595726132392883,-0.0205078125,-0.0140380859375,1.002197265625
0.28197795152664185,0.007480967789888382,0.009847806766629219,-0.9593411684036255,0.017333984375,0.0670166015625,0.9927978515625
0.28768491744995117,0.005501916632056236,0.01167303416877985,-0.9576382040977478,0.2164306640625,-0.1373291015625,1.0550537109375
0.2897278368473053,0.005018631927669048,0.012876009568572044,-0.9570093750953674,-0.485107421875,0.03857421875,1.0137939453125
0.28783273696899414,0.0018738004146143794,0.01541694812476635,-0.9575547575950623,0.02294921875,-0.0596923828125,1.009033203125
0.2860405147075653,0.0007290960056707263,0.01798100583255291,-0.9580485224723816,-0.0728759765625,-0.0556640625,0.986572265625
0.28367212414741516,-0.0014350761193782091,0.020481843501329422,-0.958701491355896,-0.0369873046875,-0.017822265625,1.021484375
0.28243693709373474,-0.003275366500020027,0.020365126430988312,-0.9590641260147095,-0.013916015625,-0.02783203125,1.0126953125
0.2821921110153198,-0.005594462156295776,0.01967356912791729,-0.959139883518219,-0.0118408203125,-0.0252685546875,1.036376953125
0.28121131658554077,-0.007707537151873112,0.018495941534638405,-0.9594366550445557,-0.0341796875,0.0220947265625,1.036376953125
0.28031182289123535,-0.009768141433596611,0.015361692756414413,-0.9597363471984863,-0.091552734375,0.03271484375,1.0289306640625
0.28060492873191833,-0.010552837513387203,0.013058740645647049,-0.9596765041351318,-0.0618896484375,0.0128173828125,0.960205078125
0.2804989516735077,-0.010061198845505714,0.011091302148997784,-0.9597375988960266,-0.113525390625,0.0028076171875,0.9959716796875
0.28125089406967163,-0.010231136344373226,0.00931129977107048,-0.9595346450805664,-0.1126708984375,0.069091796875,1.15283203125
0.2822321653366089,-0.010994377546012402,0.007989839650690556,-0.9592498540878296,-0.08349609375,0.0953369140625,1.313720703125
0.28279536962509155,-0.010330772027373314,0.00910013448446989,-0.9590815305709839,-0.0771484375,0.037353515625,1.3441162109375
0.2838243544101715,-0.011246730573475361,0.011639376170933247,-0.958739697933197,-0.0919189453125,-0.013427734375,1.4908447265625
0.2854878604412079,-0.012278764508664608,0.015399070456624031,-0.9581800103187561,-0.0770263671875,-0.0325927734375,1.640625
0.2866416275501251,-0.013726436533033848,0.020491596311330795,-0.9577203989028931,-0.1488037109375,-0.1051025390625,1.7008056640625
0.2867054045200348,-0.014629471115767956,0.02796773985028267,-0.9574986696243286,-0.19384765625,-0.1861572265625,1.8509521484375
0.28798288106918335,-0.017176825553178787,0.03764396905899048,-0.9567411541938782,-0.244384765625,-0.222412109375,1.8751220703125
0.2908152937889099,-0.021310806274414062,0.04950834810733795,-0.9552597999572754,-0.206787109375,-0.388916015625,1.754638671875
0.29381102323532104,-0.024559402838349342,0.06314822286367416,-0.9534590840339661,-0.276123046875,-0.4615478515625,1.664794921875
0.2974039316177368,-0.029866449534893036,0.07805228233337402,-0.9510871171951294,-0.479736328125,-0.37353515625,1.5
0.2995072901248932,-0.036254867911338806,0.09378467500209808,-0.9487810134887695,-0.7017822265625,-0.3770751953125,1.430908203125
0.2992701530456543,-0.04388532042503357,0.11035679280757904,-0.9467486143112183,-0.8885498046875,-0.3067626953125,1.481201171875
0.2953219711780548,-0.056381892412900925,0.12887437641620636,-0.9449853897094727,-0.953125,-0.1578369140625,1.40771484375
0.28944969177246094,-0.07156866788864136,0.14832380414009094,-0.9429193139076233,-0.65234375,-0.1661376953125,1.2042236328125
0.27900388836860657,-0.08293494582176208,0.17127864062786102,-0.9412450790405273,-0.052001953125,-0.18359375,0.7132568359375
0.2664426565170288,-0.09237577766180038,0.1955893486738205,-0.9392655491828918,0.3231201171875,-0.1744384765625,0.29443359375
0.25275182723999023,-0.09806106984615326,0.2193281501531601,-0.9372276663780212,0.464599609375,-0.093017578125,-0.1380615234375
0.24190913140773773,-0.1045542061328888,0.23918701708316803,-0.9345255494117737,0.442626953125,0.08154296875,-0.89013671875
0.23998422920703888,-0.12049712240695953,0.25011205673217773,-0.9302321672439575,0.6175537109375,0.3094482421875,-0.96923828125
0.2414851039648056,-0.13540376722812653,0.2585934102535248,-0.9254621863365173,0.88330078125,0.543701171875,-0.9176025390625
0.24362586438655853,-0.1404300034046173,0.2652551829814911,-0.922261118888855,0.77880859375,0.635009765625,-1.113037109375
0.24626851081848145,-0.14287257194519043,0.26978713274002075,-0.9198663830757141,0.6278076171875,0.5751953125,-1.232666015625
0.25189295411109924,-0.14286120235919952,0.26475790143013,-0.9198064804077148,0.5064697265625,0.5765380859375,-1.198974609375
0.2588617205619812,-0.14248378574848175,0.25785067677497864,-0.9198923707008362,0.3087158203125,0.6275634765625,-0.968505859375
0.26804858446121216,-0.13811130821704865,0.24729713797569275,-0.9208253622055054,0.218017578125,0.590087890625,-0.8206787109375
0.2770548164844513,-0.13004469871520996,0.23454926908016205,-0.9226676821708679,0.048095703125,0.525634765625,-0.6466064453125
0.28640758991241455,-0.119021475315094,0.22063091397285461,-0.9247305989265442,0.009033203125,0.4921875,-0.4091796875
0.2947116494178772,-0.10361812263727188,0.205697163939476,-0.9274141788482666,0.0206298828125,0.4117431640625,-0.16845703125
0.3034188449382782,-0.08613689243793488,0.1882292628288269,-0.930100679397583,0.122314453125,0.3160400390625,0.07470703125
0.31313684582710266,-0.06907296180725098,0.17027470469474792,-0.9317622184753418,0.196044921875,0.2977294921875,0.4459228515625
0.32430562376976013,-0.051746539771556854,0.15263888239860535,-0.9321209788322449,0.301513671875,0.182373046875,0.6923828125
0.3363175690174103,-0.032360583543777466,0.1340286284685135,-0.9316005706787109,0.24658203125,-0.043212890625,1.1876220703125
0.3500732481479645,-0.015143605880439281,0.11539951711893082,-0.9294635057449341,-0.049560546875,-0.099365234375,1.6524658203125
0.3644479513168335,-0.0019869450479745865,0.09884028136730194,-0.9259613156318665,-0.3367919921875,-0.0615234375,2.039306640625
0.378645122051239,0.007295344490557909,0.08775246888399124,-0.9213436841964722,-0.5628662109375,-0.08935546875,2.3114013671875
0.3912372291088104,0.01477484218776226,0.08001008629798889,-0.9166861176490784,-1.029541015625,-0.118896484375,2.484375
0.4009550213813782,0.014163872227072716,0.07672488689422607,-0.9127693176269531,-1.59033203125,0.0623779296875,2.7047119140625
0.407929003238678,0.011175769381225109,0.07856784760951996,-0.9095582365989685,-1.4482421875,0.0621337890625,2.5233154296875
0.40955841541290283,0.007476668804883957,0.08574308454990387,-0.908214807510376,-1.15380859375,-0.099609375,2.085205078125
0.4094218909740448,-0.0006561678601428866,0.09287326037883759,-0.9076055288314819,-1.0191650390625,-0.13232421875,1.9830322265625
0.4076719582080841,-0.01745373010635376,0.09948019683361053,-0.9075255990028381,-0.8170166015625,-0.1971435546875,1.8565673828125
0.4038659930229187,-0.0362931452691555,0.10792683809995651,-0.90770423412323,-0.7164306640625,-0.267822265625,1.7286376953125
0.39734745025634766,-0.055009108036756516,0.11863400787115097,-0.908303439617157,-0.6207275390625,-0.3779296875,1.5233154296875
0.38845816254615784,-0.07628512382507324,0.12983746826648712,-0.9090781807899475,-0.5054931640625,-0.451416015625,1.1854248046875
0.37900644540786743,-0.09959185123443604,0.14075976610183716,-0.9091876745223999,-0.3970947265625,-0.4154052734375,0.942138671875
0.3681165277957916,-0.12140572816133499,0.15306881070137024,-0.9090219140052795,-0.370849609375,-0.391845703125,0.5926513671875
0.35493603348731995,-0.1400284469127655,0.1659366637468338,-0.909328043460846,-0.4014892578125,-0.454833984375,0.1319580078125
0.3401825428009033,-0.15589642524719238,0.17674009501934052,-0.9103489518165588,-0.3798828125,-0.4315185546875,-0.2138671875
0.3224908113479614,-0.16492468118667603,0.1845964938402176,-0.9136321544647217,-0.22802734375,-0.3050537109375,-0.6141357421875
0.30436861515045166,-0.17085736989974976,0.1890932023525238,-0.917829692363739,-0.14111328125,-0.1966552734375,-0.887939453125
0.28709471225738525,-0.17325559258460999,0.18742939829826355,-0.9232709407806396,-0.0882568359375,0.000244140625,-1.0277099609375
0.2708113491535187,-0.173556387424469,0.1813385933637619,-0.9293308854103088,-0.00732421875,0.0926513671875,-0.9765625
0.2537667155265808,-0.17115816473960876,0.17185617983341217,-0.9363613724708557,0.0845947265625,0.114501953125,-0.9188232421875
0.23821839690208435,-0.16690067946910858,0.15603406727313995,-0.9439542889595032,0.2449951171875,0.2275390625,-0.6917724609375
0.22527536749839783,-0.1632988452911377,0.13692043721675873,-0.9507036209106445,0.5164794921875,0.2703857421875,-0.344970703125
0.21513336896896362,-0.15937377512454987,0.1165815070271492,-0.9564132690429688,0.88232421875,0.2891845703125,-0.0565185546875
0.20852020382881165,-0.15429097414016724,0.09552224725484848,-0.961035430431366,1.43115234375,0.448974609375,0.235595703125
0.2052975296974182,-0.1475854068994522,0.07523588091135025,-0.9645781517028809,1.89794921875,0.59619140625,0.526123046875
0.20765352249145508,-0.13590730726718903,0.05673268064856529,-0.9670525789260864,1.8568115234375,0.652587890625,0.62939453125
0.21376273036003113,-0.12413067370653152,0.03750808909535408,-0.9682407975196838,1.5311279296875,0.595458984375,0.7501220703125
0.22420324385166168,-0.11597079038619995,0.017389949411153793,-0.9674612283706665,1.1812744140625,0.5360107421875,1.1578369140625
0.23942527174949646,-0.11431840062141418,-0.0019581830129027367,-0.9641592502593994,0.7327880859375,0.4332275390625,1.380859375
0.2563334107398987,-0.11510203033685684,-0.02091730386018753,-0.9594827890396118,0.5941162109375,0.19482421875,1.4520263671875
0.2751713693141937,-0.11824526637792587,-0.03823162987828255,-0.9533295035362244,0.2471923828125,0.0892333984375,1.847412109375
0.29330122470855713,-0.12248818576335907,-0.050741005688905716,-0.9467821717262268,-0.0867919921875,0.0731201171875,2.1680908203125
0.3084449768066406,-0.12545281648635864,-0.056448135524988174,-0.9412422776222229,-0.4320068359375,-0.1134033203125,2.032958984375
0.3213059902191162,-0.13074460625648499,-0.06018025800585747,-0.9359736442565918,-0.6873779296875,-0.192626953125,2.1358642578125
0.3296130299568176,-0.13741028308868408,-0.056979723274707794,-0.9323233962059021,-0.7891845703125,-0.0638427734375,2.40625
0.33615973591804504,-0.14263731241226196,-0.05074289068579674,-0.9295570254325867,-0.578125,-0.135009765625,2.1595458984375
0.3373464345932007,-0.1445595920085907,-0.03931571543216705,-0.9293838143348694,-0.5634765625,-0.1875,1.9730224609375
0.3380703926086426,-0.15075238049030304,-0.028576554730534554,-0.9285286664962769,-0.613037109375,-0.1929931640625,1.7685546875
0.33869117498397827,-0.16260980069637299,-0.01937376894056797,-0.9265370965003967,-0.566650390625,-0.1658935546875,1.5797119140625
0.33604490756988525,-0.175779789686203,-0.009672015905380249,-0.9252468347549438,-0.522216796875,-0.1768798828125,1.4146728515625
0.33088913559913635,-0.18911220133304596,0.000724582641851157,-0.924526035785675,-0.525634765625,-0.18701171875,1.188720703125
0.3236170709133148,-0.2026713639497757,0.011003992520272732,-0.9241618514060974,-0.4998779296875,-0.183837890625,0.8797607421875
0.3142061233520508,-0.2155359536409378,0.019209416583180428,-0.9243645071983337,-0.617919921875,-0.1900634765625,0.3856201171875
0.30430272221565247,-0.22771255671977997,0.02439410798251629,-0.9246360063552856,-0.6522216796875,-0.1737060546875,0.111083984375
0.2937266230583191,-0.2384798675775528,0.025939790531992912,-0.9252995252609253,-0.5667724609375,-0.1077880859375,-0.1219482421875
0.2813397943973541,-0.24486932158470154,0.023631960153579712,-0.9275389909744263,-0.4422607421875,-0.0562744140625,-0.2125244140625
0.26803475618362427,-0.24807728826999664,0.01913626305758953,-0.9307249784469604,-0.36572265625,0.010986328125,-0.2838134765625
0.2543608844280243,-0.24860996007919312,0.010900582186877728,-0.9345452785491943,-0.2388916015625,0.039794921875,-0.37841796875
0.2415567934513092,-0.24991773068904877,-0.001255509559996426,-0.9376512169837952,-0.1470947265625,0.019775390625,-0.368896484375
0.2292676866054535,-0.249657541513443,-0.01753208413720131,-0.9406381249427795,0.1251220703125,-0.0482177734375,-0.1817626953125
0.21927550435066223,-0.2512308657169342,-0.03716172277927399,-0.9420298933982849,0.2886962890625,-0.0296630859375,0.1209716796875
0.2124161571264267,-0.25548994541168213,-0.058314163237810135,-0.941383957862854,0.297607421875,0.130126953125,0.5230712890625
0.20765647292137146,-0.258842796087265,-0.07962077856063843,-0.9399678707122803,0.4315185546875,0.1280517578125,0.7421875
0.20226043462753296,-0.2563736140727997,-0.09951319545507431,-0.9399257302284241,0.6055908203125,0.2386474609375,1.2860107421875
0.1980295479297638,-0.2574441432952881,-0.1184573769569397,-0.938336193561554,0.28466796875,0.26171875,1.279052734375
0.19555479288101196,-0.2578403055667877,-0.13591168820858002,-0.936378538608551,0.120361328125,0.2591552734375,1.3333740234375
0.1928005814552307,-0.25089848041534424,-0.15066923201084137,-0.9365771412849426,0.1624755859375,0.2080078125,1.3095703125
0.18909431993961334,-0.24273641407489777,-0.16392429172992706,-0.9372573494911194,0.1339111328125,0.0201416015625,1.252197265625
0.1844189465045929,-0.24194081127643585,-0.1775512993335724,-0.9359111785888672,-0.0101318359375,0.003662109375,1.38232421875
0.18018130958080292,-0.23998486995697021,-0.18662650883197784,-0.9354743957519531,0.3165283203125,0.100830078125,1.69384765625
0.17546260356903076,-0.2303232103586197,-0.19146902859210968,-0.9378185868263245,0.28662109375,0.049072265625,1.5408935546875
0.17010535299777985,-0.22011452913284302,-0.19589367508888245,-0.9403401017189026,0.010009765625,-0.048583984375,1.2501220703125
0.16488218307495117,-0.21525838971138,-0.2018008828163147,-0.9411450028419495,-0.0467529296875,-0.0576171875,1.1683349609375
0.1575768142938614,-0.20965003967285156,-0.21341337263584137,-0.9411009550094604,0.1185302734375,-0.168212890625,1.03759765625
0.15434913337230682,-0.20802274346351624,-0.2177456021308899,-0.9410046339035034,0.0531005859375,-0.13623046875,1.168212890625
0.1512056291103363,-0.20760715007781982,-0.2189302146434784,-0.9413319230079651,0.2205810546875,-0.2197265625,1.156005859375
0.14685069024562836,-0.20673006772994995,-0.22014205157756805,-0.9419315457344055,0.1943359375,-0.233154296875,1.084228515625
0.14142976701259613,-0.20936274528503418,-0.2184891700744629,-0.9425642490386963,0.1549072265625,-0.26123046875,1.219482421875
0.13647374510765076,-0.20638178288936615,-0.21701273322105408,-0.9442917108535767,-0.0557861328125,0.059326171875,1.5166015625
0.13254323601722717,-0.2061978578567505,-0.21453657746315002,-0.9454569220542908,0.025146484375,-0.39599609375,0.855712890625
0.13163502514362335,-0.20958615839481354,-0.20179533958435059,-0.9476416110992432,0.0198974609375,-0.032470703125,1.001708984375
0.13180015981197357,-0.20508915185928345,-0.1999373733997345,-0.9489952921867371,-0.0909423828125,0.182373046875,1.031982421875
0.13282188773155212,-0.20337630808353424,-0.2041407823562622,-0.9483264088630676,0.0108642578125,0.0714111328125,1.0
0.13398808240890503,-0.2014814019203186,-0.20524463057518005,-0.9483286142349243,-0.0191650390625,-0.08203125,1.0118408203125
0.13375477492809296,-0.20153029263019562,-0.2036057710647583,-0.9487043023109436,0.0006103515625,-0.0838623046875,1.005859375
0.13272956013679504,-0.2022283375263214,-0.2005375623703003,-0.9493530988693237,-0.033447265625,-0.024658203125,1.001953125
0.13265377283096313,-0.20151931047439575,-0.19996118545532227,-0.9496359825134277,-0.0509033203125,0.053466796875,0.9945068359375
0.13334901630878448,-0.2000764161348343,-0.20095424354076385,-0.9496340751647949,-0.040283203125,0.0081787109375,0.998779296875
0.133800208568573,-0.19911636412143707,-0.20120327174663544,-0.9497196674346924,-0.0194091796875,-0.045654296875,1.006103515625
0.13359640538692474,-0.1988469660282135,-0.19991861283779144,-0.9500760436058044,-0.02978515625,-0.01904296875,1.002685546875
0.1334296017885208,-0.19841675460338593,-0.19892814755439758,-0.9503973126411438,-0.0428466796875,0.015625,0.9971923828125
0.13376682996749878,-0.19739682972431183,-0.19896243512630463,-0.9505549669265747,-0.0311279296875,-0.012939453125,1.0023193359375
0.13381946086883545,-0.19683727622032166,-0.19832180440425873,-0.9507974982261658,-0.0263671875,-0.0294189453125,1.002685546875
0.1337464302778244,-0.19638527929782867,-0.1974455565214157,-0.9510836005210876,-0.0380859375,0.0008544921875,0.9989013671875
0.13387565314769745,-0.19563238322734833,-0.19713254272937775,-0.9512854814529419,-0.0350341796875,0.0006103515625,0.9993896484375
0.13419680297374725,-0.19479691982269287,-0.19682593643665314,-0.9514750838279724,-0.0291748046875,-0.018798828125,1.0013427734375
0.1341453492641449,-0.19433443248271942,-0.1959734708070755,-0.9517529606819153,-0.0330810546875,-0.008056640625,1.0010986328125
0.1341908574104309,-0.19369716942310333,-0.19543024897575378,-0.9519880414009094,-0.03662109375,-0.000244140625,0.9976806640625
0.1342545598745346,-0.19306419789791107,-0.1949189007282257,-0.952212393283844,-0.0301513671875,-0.015625,1.0010986328125
0.13443802297115326,-0.19240017235279083,-0.1943167895078659,-0.9524439573287964,-0.0316162109375,-0.012939453125,1.0006103515625
0.13448566198349,-0.19177621603012085,-0.19374464452266693,-0.9526796936988831,-0.03466796875,-0.005859375,1.001708984375
0.1345399171113968,-0.1911432445049286,-0.19318152964115143,-0.9529135227203369,-0.032470703125,-0.0089111328125,1.0010986328125
0.1345733404159546,-0.19054338335990906,-0.1925969421863556,-0.9531472325325012,-0.03076171875,-0.0096435546875,1.001220703125
0.13466373085975647,-0.18984922766685486,-0.1919725388288498,-0.9533990025520325,-0.031494140625,-0.010498046875,1.001220703125
0.13468672335147858,-0.18925601243972778,-0.19134962558746338,-0.9536388516426086,-0.0328369140625,-0.0078125,1.00048828125
0.13473926484584808,-0.18862031400203705,-0.19081173837184906,-0.953865110874176,-0.033935546875,-0.00927734375,1.002197265625
0.13476260006427765,-0.18803353607654572,-0.1901709884405136,-0.9541054368019104,-0.0299072265625,-0.0128173828125,1.001220703125
0.1348874866962433,-0.18733106553554535,-0.1895609050989151,-0.9543474316596985,-0.0318603515625,-0.008056640625,1.002197265625
0.13492952287197113,-0.18670032918453217,-0.18900245428085327,-0.954575777053833,-0.0333251953125,-0.0087890625,1.000244140625
0.13497979938983917,-0.18608051538467407,-0.1884288638830185,-0.9548031091690063,-0.03125,-0.0106201171875,1.0009765625
0.1350070834159851,-0.18548104166984558,-0.18780729174613953,-0.95503830909729,-0.02978515625,-0.0101318359375,1.002197265625
0.1353539675474167,-0.1847561001777649,-0.18735136091709137,-0.9552193880081177,-0.0322265625,-0.007080078125,1.0023193359375
0.1353973001241684,-0.184129536151886,-0.18678078055381775,-0.9554457664489746,-0.0338134765625,-0.0078125,1.001220703125
0.13543610274791718,-0.18350638449192047,-0.18620112538337708,-0.9556732773780823,-0.031494140625,-0.0108642578125,1.00048828125
0.13547037541866302,-0.18290463089942932,-0.1855856329202652,-0.9559035897254944,-0.02978515625,-0.0103759765625,1.000732421875
0.13554330170154572,-0.1822185516357422,-0.1849537342786789,-0.9561467170715332,-0.0323486328125,-0.0086669921875,1.000732421875
0.13557769358158112,-0.18161410093307495,-0.18435733020305634,-0.9563719630241394,-0.032958984375,-0.0079345703125,1.0018310546875
0.13561610877513885,-0.1809895783662796,-0.18378856778144836,-0.9565944075584412,-0.03271484375,-0.009033203125,1.001220703125
0.13565000891685486,-0.18038511276245117,-0.1831706464290619,-0.9568221569061279,-0.0303955078125,-0.0106201171875,1.001220703125
0.13567590713500977,-0.179786816239357,-0.1825570911169052,-0.9570484161376953,-0.0328369140625,-0.009765625,1.0006103515625
0.1357668936252594,-0.17907214164733887,-0.1819484531879425,-0.9572853446006775,-0.0340576171875,-0.0086669921875,1.001953125
0.1358085423707962,-0.17844870686531067,-0.1813647747039795,-0.9575065970420837,-0.032470703125,-0.0101318359375,1.00146484375
0.13584215939044952,-0.1778416931629181,-0.18074432015419006,-0.9577320218086243,-0.030029296875,-0.01025390625,1.001708984375
0.13586409389972687,-0.17725645005702972,-0.18009358644485474,-0.9579599499702454,-0.031982421875,-0.0084228515625,1.0018310546875
0.13597610592842102,-0.17652685940265656,-0.1795160174369812,-0.9581872820854187,-0.033935546875,-0.0067138671875,1.0015869140625
0.13601665198802948,-0.17589882016181946,-0.17894940078258514,-0.9584029912948608,-0.0325927734375,-0.0120849609375,1.0009765625
0.1360492706298828,-0.1753062754869461,-0.1782991737127304,-0.9586279392242432,-0.0296630859375,-0.01220703125,1.0023193359375
0.13607282936573029,-0.17470782995224,-0.17764489352703094,-0.9588553309440613,-0.03125,-0.0074462890625,1.000244140625
0.1361403912305832,-0.1739991307258606,-0.17705471813678741,-0.9590837955474854,-0.0343017578125,-0.0079345703125,1.0013427734375
0.13617387413978577,-0.17338097095489502,-0.17644821107387543,-0.9593027234077454,-0.029541015625,-0.01220703125,1.0025634765625
0.13619452714920044,-0.17278285324573517,-0.1757940649986267,-0.9595277309417725,-0.0299072265625,-0.010498046875,1.001953125
0.13621310889720917,-0.17217838764190674,-0.17514513432979584,-0.9597524404525757,-0.031982421875,-0.0062255859375,1.0009765625
0.13624662160873413,-0.17154911160469055,-0.1745593100786209,-0.9599670767784119,-0.0323486328125,-0.0072021484375,1.001708984375
0.136652410030365,-0.17077532410621643,-0.1741979867219925,-0.9601129293441772,-0.0333251953125,-0.01171875,1.001708984375
0.13666896522045135,-0.17018495500087738,-0.1735195815563202,-0.960338294506073,-0.029541015625,-0.0118408203125,1.0020751953125
0.13670030236244202,-0.16956275701522827,-0.17290258407592773,-0.9605551958084106,-0.0321044921875,-0.0050048828125,1.002197265625
0.13679230213165283,-0.16882605850696564,-0.1723359078168869,-0.9607735872268677,-0.032470703125,-0.0087890625,1.00244140625
0.13681478798389435,-0.1682191640138626,-0.1716804951429367,-0.9609941840171814,-0.0303955078125,-0.0115966796875,1.0030517578125
0.13683512806892395,-0.16761328279972076,-0.17102867364883423,-0.9612133502960205,-0.030517578125,-0.00830078125,1.003173828125
0.1368665099143982,-0.16698239743709564,-0.17042699456214905,-0.9614255428314209,-0.0313720703125,-0.00732421875,1.002685546875
0.13697734475135803,-0.16624712944030762,-0.16985058784484863,-0.9616391062736511,-0.0321044921875,-0.011474609375,1.0015869140625
0.13700217008590698,-0.16563531756401062,-0.16920830309391022,-0.9618544578552246,-0.030517578125,-0.0113525390625,1.0025634765625
0.13702617585659027,-0.16502757370471954,-0.16854894161224365,-0.9620711803436279,-0.0303955078125,-0.0072021484375,1.002197265625
0.13706213235855103,-0.16439013183116913,-0.1679387241601944,-0.9622818827629089,-0.033203125,-0.008056640625,1.002685546875
0.1370963305234909,-0.16375590860843658,-0.1673474758863449,-0.9624881148338318,-0.0328369140625,-0.01025390625,1.0028076171875
0.13753335177898407,-0.16302308440208435,-0.1669299453496933,-0.9626227021217346,-0.031494140625,-0.0120849609375,1.0023193359375
0.13754922151565552,-0.16241607069969177,-0.16628414392471313,-0.9628347754478455,-0.0306396484375,-0.0087890625,1.0028076171875
0.13758628070354462,-0.16178201138973236,-0.1656804084777832,-0.9630403518676758,-0.031494140625,-0.0084228515625,1.0030517578125
0.13761897385120392,-0.16114789247512817,-0.1650608479976654,-0.9632483720779419,-0.0306396484375,-0.0126953125,1.0013427734375
0.13778230547904968,-0.16039662063121796,-0.16446152329444885,-0.9634527564048767,-0.0311279296875,-0.010498046875,1.002197265625
0.13781297206878662,-0.15977458655834198,-0.16383185982704163,-0.9636591076850891,-0.0318603515625,-0.0084228515625,1.0013427734375
0.13784414529800415,-0.15913957357406616,-0.16321976482868195,-0.9638635516166687,-0.03173828125,-0.010009765625,1.0020751953125
0.13786812126636505,-0.15850381553173065,-0.1625984013080597,-0.9640698432922363,-0.0322265625,-0.0096435546875,1.002197265625
0.13802719116210938,-0.1577516496181488,-0.1620137095451355,-0.9642689228057861,-0.0301513671875,-0.009521484375,1.001708984375
0.1380571722984314,-0.1571250855922699,-0.1613689363002777,-0.9644749760627747,-0.0308837890625,-0.009033203125,1.0013427734375
0.13808926939964294,-0.15647633373737335,-0.16075399518013,-0.9646785259246826,-0.0323486328125,-0.00927734375,1.002685546875
0.13812564313411713,-0.15583665668964386,-0.16013018786907196,-0.9648804664611816,-0.03076171875,-0.0108642578125,1.0025634765625
0.13819608092308044,-0.15512947738170624,-0.15947268903255463,-0.9650933146476746,-0.03076171875,-0.0091552734375,1.0029296875
0.1382306069135666,-0.15448345243930817,-0.15885287523269653,-0.9652942419052124,-0.032470703125,-0.00732421875,1.002685546875
0.13826705515384674,-0.15384431183338165,-0.15823963284492493,-0.965491771697998,-0.0318603515625,-0.0103759765625,1.0023193359375
0.13829770684242249,-0.15321889519691467,-0.1576012372970581,-0.9656912088394165,-0.031982421875,-0.0107421875,1.002685546875
0.13832621276378632,-0.15259288251399994,-0.15695340931415558,-0.9658917188644409,-0.0313720703125,-0.009033203125,1.0020751953125
0.13854055106639862,-0.15182846784591675,-0.15640269219875336,-0.9660707712173462,-0.03125,-0.0091552734375,1.001953125
0.13856494426727295,-0.15118451416492462,-0.15578508377075195,-0.9662680625915527,-0.0318603515625,-0.0087890625,1.0025634765625
0.13859900832176208,-0.15054333209991455,-0.15515917539596558,-0.9664639830589294,-0.0322265625,-0.0098876953125,1.00244140625
0.13862432539463043,-0.149910569190979,-0.15451185405254364,-0.9666623473167419,-0.0302734375,-0.010009765625,1.002197265625
0.13890397548675537,-0.14912773668766022,-0.15399374067783356,-0.9668259620666504,-0.031494140625,-0.0078125,1.0020751953125
0.13893666863441467,-0.14848940074443817,-0.15336734056472778,-0.9670190811157227,-0.0323486328125,-0.0091552734375,1.0018310546875
0.13896025717258453,-0.14784525334835052,-0.15273965895175934,-0.9672137498855591,-0.031982421875,-0.01025390625,1.00146484375
0.1389867663383484,-0.1472088098526001,-0.15210013091564178,-0.9674077033996582,-0.0301513671875,-0.0096435546875,1.002685546875
0.139207661151886,-0.1458009034395218,-0.15088678896427155,-0.9677791595458984,-0.031494140625,-0.00927734375,1.003173828125
0.13923679292201996,-0.14515480399131775,-0.1502608209848404,-0.9679694771766663,-0.031494140625,-0.0098876953125,1.0028076171875
0.13926708698272705,-0.1445215940475464,-0.14961937069892883,-0.9681591987609863,-0.031005859375,-0.0096435546875,1.0025634765625
0.13930420577526093,-0.14387544989585876,-0.14898237586021423,-0.9683483242988586,-0.03125,-0.008056640625,1.0028076171875
0.13944225013256073,-0.14312323927879333,-0.1483844816684723,-0.9685316681861877,-0.031982421875,-0.0091552734375,1.003173828125
0.13947317004203796,-0.14248035848140717,-0.14774776995182037,-0.9687193036079407,-0.0321044921875,-0.008544921875,1.0018310546875
0.13950791954994202,-0.1418323665857315,-0.1471223682165146,-0.9689045548439026,-0.031494140625,-0.010498046875,1.0030517578125
0.13953734934329987,-0.14119388163089752,-0.1464657336473465,-0.9690930247306824,-0.031982421875,-0.01123046875,1.0018310546875
0.14003494381904602,-0.14045317471027374,-0.14608199894428253,-0.9691869020462036,-0.03125,-0.0091552734375,1.0025634765625
0.14006806910037994,-0.13980282843112946,-0.14545126259326935,-0.96937096118927,-0.03173828125,-0.0089111328125,1.0018310546875
0.14009660482406616,-0.13915351033210754,-0.14481830596923828,-0.9695549607276917,-0.0302734375,-0.009765625,1.0032958984375
0.14012505114078522,-0.138518825173378,-0.14415937662124634,-0.9697399735450745,-0.0303955078125,-0.0101318359375,1.0029296875
0.14042650163173676,-0.13773047924041748,-0.14366717636585236,-0.9698817133903503,-0.0316162109375,-0.0084228515625,1.003173828125
0.14045429229736328,-0.13707846403121948,-0.14303357899188995,-0.9700635671615601,-0.031005859375,-0.009033203125,1.0025634765625
0.14047925174236298,-0.13643406331539154,-0.14238394796848297,-0.9702463746070862,-0.0303955078125,-0.0091552734375,1.0028076171875
0.14050643146038055,-0.13579879701137543,-0.14173153042793274,-0.9704270958900452,-0.0322265625,-0.0087890625,1.0028076171875
0.14091475307941437,-0.13501200079917908,-0.14129358530044556,-0.9705415368080139,-0.031982421875,-0.00830078125,1.00341796875
0.14094719290733337,-0.13435861468315125,-0.14065706729888916,-0.9707200527191162,-0.0318603515625,-0.0091552734375,1.002685546875
0.14097484946250916,-0.13370585441589355,-0.14001871645450592,-0.9708983302116394,-0.0302734375,-0.009521484375,1.0037841796875
0.1409977227449417,-0.13306467235088348,-0.1393619030714035,-0.971077561378479,-0.0311279296875,-0.0091552734375,1.00341796875
0.14102108776569366,-0.13241715729236603,-0.13870438933372498,-0.9712567925453186,-0.0318603515625,-0.00927734375,1.00244140625
0.1412367969751358,-0.1316346675157547,-0.13815847039222717,-0.9714096188545227,-0.0321044921875,-0.0091552734375,1.0025634765625
0.14126677811145782,-0.130981907248497,-0.137502521276474,-0.9715865850448608,-0.03076171875,-0.0089111328125,1.0025634765625
0.14129911363124847,-0.13032306730747223,-0.13685446977615356,-0.9717620015144348,-0.031005859375,-0.010009765625,1.0025634765625
0.14132173359394073,-0.12968023121356964,-0.13619379699230194,-0.9719374775886536,-0.0318603515625,-0.01025390625,1.0023193359375
0.14163926243782043,-0.12887902557849884,-0.1357051581144333,-0.9720662236213684,-0.0316162109375,-0.0093994140625,1.00390625
0.14166824519634247,-0.1282348483800888,-0.13505253195762634,-0.9722380042076111,-0.030029296875,-0.0087890625,1.0030517578125
0.14169259369373322,-0.12758389115333557,-0.1343996822834015,-0.9724105596542358,-0.031005859375,-0.00927734375,1.00244140625
0.1417117416858673,-0.1269320249557495,-0.1337466537952423,-0.9725830554962158,-0.031982421875,-0.01025390625,1.0028076171875
0.14237909018993378,-0.12629832327365875,-0.13346943259239197,-0.9726062417030334,-0.0321044921875,-0.0098876953125,1.0029296875
0.14241430163383484,-0.1256473809480667,-0.13281817734241486,-0.9727745652198792,-0.030517578125,-0.0089111328125,1.001708984375
0.14244011044502258,-0.12499071657657623,-0.1321655958890915,-0.9729443192481995,-0.0302734375,-0.009765625,1.002197265625
0.1424621194601059,-0.12434056401252747,-0.13149364292621613,-0.9731152653694153,-0.0311279296875,-0.009521484375,1.003662109375
0.14281035959720612,-0.12354283034801483,-0.13101093471050262,-0.9732310175895691,-0.03173828125,-0.0087890625,1.0023193359375
0.14283396303653717,-0.12288918346166611,-0.1303536742925644,-0.9733984470367432,-0.0316162109375,-0.00927734375,1.0015869140625
0.14285403490066528,-0.1222299337387085,-0.1296994537115097,-0.9735658764839172,-0.03173828125,-0.010498046875,1.0018310546875
0.1428806036710739,-0.12159045785665512,-0.1290290355682373,-0.9737311005592346,-0.0303955078125,-0.01025390625,1.0029296875
0.14337758719921112,-0.12083014845848083,-0.12862861156463623,-0.9738057255744934,-0.03173828125,-0.0096435546875,1.0037841796875
0.1433967649936676,-0.12016775459051132,-0.1279744952917099,-0.9739710092544556,-0.031982421875,-0.0089111328125,1.001708984375
0.1434275209903717,-0.11950352787971497,-0.12731534242630005,-0.9741345643997192,-0.03125,-0.0101318359375,1.002197265625
0.1434490978717804,-0.11885631829500198,-0.12664267420768738,-0.9742982387542725,-0.03125,-0.0103759765625,1.002197265625
0.1437017172574997,-0.11806932091712952,-0.1260865479707718,-0.9744289517402649,-0.0311279296875,-0.00927734375,1.0023193359375
0.14376038312911987,-0.11674261093139648,-0.12477554380893707,-0.9747487902641296,-0.0313720703125,-0.010009765625,1.001220703125
0.14378239214420319,-0.1160893589258194,-0.12409884482622147,-0.9749099016189575,-0.030517578125,-0.01025390625,1.0023193359375
0.14380227029323578,-0.11543373018503189,-0.12341462075710297,-0.9750717282295227,-0.0306396484375,-0.008056640625,1.0013427734375
0.1442660093307495,-0.11464937031269073,-0.12301637977361679,-0.9751461148262024,-0.031494140625,-0.009765625,1.00390625
0.14429396390914917,-0.1139891967177391,-0.12234216183423996,-0.9753040671348572,-0.031005859375,-0.0098876953125,1.0029296875
0.14432524144649506,-0.1133362427353859,-0.12165690213441849,-0.9754612445831299,-0.031005859375,-0.0101318359375,1.00244140625
0.14434128999710083,-0.1126747727394104,-0.12097304314374924,-0.9756206274032593,-0.03125,-0.009765625,1.0032958984375
0.14472413063049316,-0.11187484860420227,-0.12051734328269958,-0.9757122993469238,-0.032470703125,-0.009521484375,1.002685546875
0.1447533369064331,-0.11121513694524765,-0.11986240744590759,-0.9758639931678772,-0.0322265625,-0.010498046875,1.00244140625
0.14477436244487762,-0.11055856943130493,-0.11918118596076965,-0.976019024848938,-0.0308837890625,-0.009765625,1.0010986328125
0.14479880034923553,-0.10990620404481888,-0.11849629878997803,-0.9761723279953003,-0.0318603515625,-0.00927734375,1.001708984375
0.14553549885749817,-0.10928241163492203,-0.11827908456325531,-0.9761592149734497,-0.032470703125,-0.0086669921875,1.0018310546875
0.1455586701631546,-0.10861462354660034,-0.11761817336082458,-0.9763100743293762,-0.03125,-0.00830078125,1.0025634765625
0.1455858200788498,-0.10795667767524719,-0.11694372445344925,-0.9764600992202759,-0.0313720703125,-0.01025390625,1.003173828125
0.1456114947795868,-0.10730353742837906,-0.11626498401165009,-0.9766092896461487,-0.0302734375,-0.009033203125,1.0020751953125
0.14563864469528198,-0.10664231330156326,-0.1155962347984314,-0.9767569899559021,-0.0316162109375,-0.009521484375,1.002685546875
0.1463286280632019,-0.10596279054880142,-0.11532916128635406,-0.9767594933509827,-0.0316162109375,-0.0111083984375,1.00244140625
0.14635001122951508,-0.10530271381139755,-0.11465317010879517,-0.9769071340560913,-0.0302734375,-0.0089111328125,1.0025634765625
0.14636805653572083,-0.10465338081121445,-0.11396418511867523,-0.9770548939704895,-0.0313720703125,-0.0087890625,1.001708984375
0.14638569951057434,-0.10399748384952545,-0.11327037215232849,-0.9772029519081116,-0.0322265625,-0.0084228515625,1.00341796875
0.14707256853580475,-0.10329821705818176,-0.11302500218153,-0.9772024750709534,-0.0321044921875,-0.008544921875,1.003173828125
0.14710289239883423,-0.10262774676084518,-0.11236178874969482,-0.9773449897766113,-0.0301513671875,-0.0107421875,1.002197265625
0.14712005853652954,-0.10197719931602478,-0.11165132373571396,-0.9774918556213379,-0.03125,-0.010009765625,1.0030517578125
0.14713826775550842,-0.10131797194480896,-0.11096619814634323,-0.9776356816291809,-0.0318603515625,-0.0074462890625,1.0037841796875
0.14742833375930786,-0.10049787908792496,-0.11046148091554642,-0.977733850479126,-0.0323486328125,-0.00830078125,1.003173828125
0.14744991064071655,-0.0998329222202301,-0.10977725684642792,-0.9778757095336914,-0.0308837890625,-0.010498046875,1.00390625
0.1474660336971283,-0.099186010658741,-0.10906544327735901,-0.9780187010765076,-0.031494140625,-0.0098876953125,1.00244140625
0.14748330414295197,-0.09852644056081772,-0.10837255418300629,-0.9781597852706909,-0.0321044921875,-0.0076904296875,1.0018310546875
0.14750514924526215,-0.09784829616546631,-0.10770148783922195,-0.9782987236976624,-0.03125,-0.0079345703125,1.0030517578125
0.14809884130954742,-0.09710531681776047,-0.10736007988452911,-0.9783205389976501,-0.030517578125,-0.01123046875,1.003173828125
0.14811524748802185,-0.09645728021860123,-0.10665041208267212,-0.9784597754478455,-0.031494140625,-0.010009765625,1.0030517578125
0.14813317358493805,-0.09579533338546753,-0.10596533864736557,-0.9785966277122498,-0.0322265625,-0.0076904296875,1.002685546875
0.14816540479660034,-0.09512463212013245,-0.10529399663209915,-0.9787296056747437,-0.0321044921875,-0.010009765625,1.0035400390625
0.1485809087753296,-0.09432782232761383,-0.10484784096479416,-0.9787916541099548,-0.0316162109375,-0.0107421875,1.00146484375
0.14860354363918304,-0.09367196261882782,-0.10414537787437439,-0.9789260625839233,-0.0303955078125,-0.0086669921875,1.0029296875
0.14862671494483948,-0.09300734847784042,-0.10344915837049484,-0.9790597558021545,-0.03173828125,-0.0084228515625,1.0035400390625
0.14864581823349,-0.0923382118344307,-0.10276976972818375,-0.9791917204856873,-0.0322265625,-0.0081787109375,1.003173828125
0.1492164433002472,-0.09159000962972641,-0.1024283692240715,-0.9792110323905945,-0.0318603515625,-0.009765625,1.0028076171875
0.14923974871635437,-0.09093572944402695,-0.10172558575868607,-0.9793416857719421,-0.0311279296875,-0.0107421875,1.003662109375
0.14926262199878693,-0.09027114510536194,-0.10102608054876328,-0.9794721007347107,-0.0308837890625,-0.008056640625,1.0023193359375
0.1492823362350464,-0.08959899842739105,-0.10034049302339554,-0.9796013236045837,-0.03173828125,-0.00927734375,1.0032958984375
0.14930060505867004,-0.08893897384405136,-0.099649578332901,-0.979729175567627,-0.0316162109375,-0.0098876953125,1.003173828125
0.15009230375289917,-0.0883452519774437,-0.09946765750646591,-0.9796804189682007,-0.031005859375,-0.009765625,1.00341796875
0.15011490881443024,-0.08768236637115479,-0.09877825528383255,-0.9798061847686768,-0.031982421875,-0.0079345703125,1.003662109375
0.1501384824514389,-0.08701815456151962,-0.09809821844100952,-0.9799301028251648,-0.0321044921875,-0.0084228515625,1.0029296875
0.15016140043735504,-0.08635734021663666,-0.09740519523620605,-0.9800542593002319,-0.0318603515625,-0.0093994140625,1.0032958984375
0.15091562271118164,-0.08572017401456833,-0.09718888998031616,-0.980015754699707,-0.0322265625,-0.0107421875,1.00341796875
0.1509389877319336,-0.08506006747484207,-0.09649831056594849,-0.9801379442214966,-0.0313720703125,-0.0093994140625,1.0029296875
0.1509629786014557,-0.08438752591609955,-0.09580723941326141,-0.9802601933479309,-0.0325927734375,-0.009521484375,1.002685546875
0.15098446607589722,-0.08372754603624344,-0.09510157257318497,-0.9803820848464966,-0.0328369140625,-0.009765625,1.00244140625
0.1518642157316208,-0.0832958072423935,-0.0950440987944603,-0.980288565158844,-0.0318603515625,-0.0093994140625,1.0030517578125
0.15188738703727722,-0.0826316699385643,-0.09434445202350616,-0.980408787727356,-0.03173828125,-0.0098876953125,1.00341796875
0.15190516412258148,-0.08196180313825607,-0.09363918751478195,-0.9805298447608948,-0.031982421875,-0.0098876953125,1.0029296875
0.1519220769405365,-0.08129534870386124,-0.09293565899133682,-0.9806495308876038,-0.0321044921875,-0.00927734375,1.003662109375
0.15229301154613495,-0.08049801737070084,-0.0924743115901947,-0.9807015657424927,-0.0311279296875,-0.0089111328125,1.00244140625
0.15231016278266907,-0.07983482629060745,-0.09176617860794067,-0.9808195233345032,-0.0306396484375,-0.009521484375,1.0028076171875
0.15232041478157043,-0.07917629182338715,-0.0910496711730957,-0.9809380173683167,-0.0306396484375,-0.0089111328125,1.0023193359375
0.15234272181987762,-0.07851028442382812,-0.09034720808267593,-0.9810531139373779,-0.031494140625,-0.0093994140625,1.0030517578125
0.15279622375965118,-0.07771852612495422,-0.08994735032320023,-0.9810823798179626,-0.0321044921875,-0.0091552734375,1.003662109375
0.1528182476758957,-0.077056385576725,-0.0892353355884552,-0.9811961650848389,-0.0303955078125,-0.0096435546875,1.001220703125
0.1528434455394745,-0.07640056312084198,-0.08850903064012527,-0.9813093543052673,-0.0316162109375,-0.0098876953125,1.00341796875
0.15286970138549805,-0.07573351263999939,-0.08780021220445633,-0.9814205765724182,-0.03173828125,-0.008544921875,1.003662109375
0.15289178490638733,-0.07506628334522247,-0.08709967881441116,-0.9815307855606079,-0.03076171875,-0.0089111328125,1.0029296875
0.15340007841587067,-0.07430700212717056,-0.08673961460590363,-0.9815411567687988,-0.0313720703125,-0.0091552734375,1.0030517578125
0.153416246175766,-0.07364393770694733,-0.08602489531040192,-0.9816514849662781,-0.031005859375,-0.010009765625,1.0029296875
0.15343591570854187,-0.07298540323972702,-0.08530206233263016,-0.9817607402801514,-0.031005859375,-0.0089111328125,1.00341796875
0.15345774590969086,-0.07231157273054123,-0.08459925651550293,-0.9818679094314575,-0.0311279296875,-0.008544921875,1.0015869140625
0.15387551486492157,-0.0715310350060463,-0.08418472111225128,-0.9818954467773438,-0.0313720703125,-0.009033203125,1.0023193359375
0.15389671921730042,-0.07086723297834396,-0.08347243815660477,-0.982001006603241,-0.03173828125,-0.0103759765625,1.001220703125
0.15391626954078674,-0.07021111249923706,-0.08274459838867188,-0.9821066856384277,-0.03076171875,-0.009765625,1.002197265625
0.15393227338790894,-0.06953980773687363,-0.08203219622373581,-0.982211709022522,-0.0313720703125,-0.0096435546875,1.0025634765625
0.15463244915008545,-0.06884581595659256,-0.08183562755584717,-0.9821669459342957,-0.031494140625,-0.0096435546875,1.0032958984375
0.1546521782875061,-0.06819072365760803,-0.08110948652029037,-0.9822697639465332,-0.0308837890625,-0.0101318359375,1.003173828125
0.1546669900417328,-0.06752621382474899,-0.08039017021656036,-0.9823724627494812,-0.031494140625,-0.009521484375,1.0042724609375
0.15469227731227875,-0.06686480343341827,-0.07968199998140335,-0.9824714064598083,-0.0313720703125,-0.009033203125,1.0035400390625
0.1547078937292099,-0.06619706004858017,-0.07897775620222092,-0.9825710654258728,-0.031005859375,-0.0091552734375,1.0029296875
0.1551792025566101,-0.06545370072126389,-0.07859355956315994,-0.982577383518219,-0.030517578125,-0.009765625,1.003173828125
0.15519191324710846,-0.06479637324810028,-0.07785733789205551,-0.9826775193214417,-0.0313720703125,-0.009033203125,1.0040283203125
0.15521666407585144,-0.06413006782531738,-0.07714107632637024,-0.9827738404273987,-0.0316162109375,-0.0089111328125,1.003173828125
0.15523694455623627,-0.06346624344587326,-0.07642626017332077,-0.982869565486908,-0.0302734375,-0.009521484375,1.00390625
0.15612801909446716,-0.0630321353673935,-0.07642090320587158,-0.9827567934989929,-0.0311279296875,-0.01025390625,1.003662109375
0.15615132451057434,-0.06237809360027313,-0.07569868117570877,-0.9828506112098694,-0.03173828125,-0.0089111328125,1.0029296875
0.15617069602012634,-0.061714038252830505,-0.07497818768024445,-0.9829447865486145,-0.0316162109375,-0.0096435546875,1.00390625
0.15618453919887543,-0.06104834005236626,-0.07425851374864578,-0.9830386638641357,-0.03173828125,-0.0093994140625,1.0032958984375
0.15685512125492096,-0.060373321175575256,-0.07403895258903503,-0.9829902648925781,-0.0308837890625,-0.010009765625,1.002685546875
0.15686839818954468,-0.059709832072257996,-0.07331177592277527,-0.9830831289291382,-0.031005859375,-0.0086669921875,1.0035400390625
0.15688210725784302,-0.0590403713285923,-0.07260292023420334,-0.9831739664077759,-0.0328369140625,-0.0089111328125,1.0025634765625
0.15690113604068756,-0.05837949737906456,-0.0718766301870346,-0.9832637310028076,-0.03076171875,-0.0098876953125,1.0029296875
0.1576737016439438,-0.05782325565814972,-0.07176520675420761,-0.9831811189651489,-0.0316162109375,-0.008544921875,1.0030517578125
0.1576923429965973,-0.05715412274003029,-0.07104000449180603,-0.983269989490509,-0.0313720703125,-0.008544921875,1.0018310546875
0.1577061265707016,-0.05648527666926384,-0.07031836360692978,-0.9833582639694214,-0.0322265625,-0.0098876953125,1.00244140625
0.15772980451583862,-0.05582338199019432,-0.0695764496922493,-0.9834449887275696,-0.0303955078125,-0.0098876953125,1.0032958984375
0.15775367617607117,-0.05516055226325989,-0.06883929669857025,-0.9835305213928223,-0.0302734375,-0.0098876953125,1.0032958984375
0.158451110124588,-0.05452699959278107,-0.06866636127233505,-0.9834657907485962,-0.0303955078125,-0.01025390625,1.00244140625
0.1584690511226654,-0.053868506103754044,-0.06794896721839905,-0.9835489988327026,-0.0322265625,-0.009521484375,1.00341796875
0.15848736464977264,-0.053209125995635986,-0.0672217532992363,-0.98363196849823,-0.03173828125,-0.010498046875,1.0029296875
0.1585056036710739,-0.05254517123103142,-0.06648804992437363,-0.9837145209312439,-0.03076171875,-0.009765625,1.0023193359375
0.15947987139225006,-0.05237011983990669,-0.06665507704019547,-0.9835551381111145,-0.0325927734375,-0.010009765625,1.0035400390625
0.15949209034442902,-0.051717910915613174,-0.0659213587641716,-0.9836371541023254,-0.03076171875,-0.009765625,1.002685546875
0.15951423346996307,-0.05106090381741524,-0.06517697870731354,-0.9837173819541931,-0.0311279296875,-0.009521484375,1.0009765625
0.1595308482646942,-0.05040166527032852,-0.06443403661251068,-0.9837976098060608,-0.031494140625,-0.00927734375,1.0023193359375
0.16049903631210327,-0.05033555254340172,-0.06464129686355591,-0.9836299419403076,-0.0322265625,-0.0101318359375,1.003662109375
0.16051052510738373,-0.049675438553094864,-0.06390312314033508,-0.9837098717689514,-0.0318603515625,-0.00927734375,1.001708984375
0.16052129864692688,-0.049021586775779724,-0.06315987557172775,-0.9837888479232788,-0.031982421875,-0.009521484375,1.0030517578125
0.1605430692434311,-0.048362236469984055,-0.06242004781961441,-0.9838652014732361,-0.03125,-0.009033203125,1.00341796875
0.1612975150346756,-0.0478288009762764,-0.06236778944730759,-0.9837712645530701,-0.0306396484375,-0.0091552734375,1.00244140625
0.1613141894340515,-0.047168388962745667,-0.06163709983229637,-0.9838464856147766,-0.0318603515625,-0.009033203125,1.0035400390625
0.16133037209510803,-0.046511031687259674,-0.060894206166267395,-0.983921229839325,-0.0308837890625,-0.0087890625,1.0023193359375
0.1613510549068451,-0.045851048082113266,-0.06014878302812576,-0.9839947819709778,-0.0318603515625,-0.0084228515625,1.004150390625
0.16137368977069855,-0.04518997296690941,-0.05941615253686905,-0.9840661883354187,-0.031005859375,-0.01025390625,1.004150390625
0.16233229637145996,-0.04516560956835747,-0.05966091901063919,-0.9838948249816895,-0.031494140625,-0.0108642578125,1.00341796875
0.1623426079750061,-0.04452602565288544,-0.058907393366098404,-0.983967661857605,-0.0316162109375,-0.01123046875,1.0032958984375
0.1623576283454895,-0.043870698660612106,-0.058166395872831345,-0.9840386509895325,-0.0321044921875,-0.0086669921875,1.0028076171875
0.1623743176460266,-0.04320697486400604,-0.057434726506471634,-0.9841082096099854,-0.03125,-0.009521484375,1.0025634765625
0.16315574944019318,-0.04279458150267601,-0.05746320262551308,-0.9839953184127808,-0.0313720703125,-0.0098876953125,1.00341796875
0.16316565871238708,-0.04214910417795181,-0.05670787766575813,-0.9840653538703918,-0.0311279296875,-0.010009765625,1.00244140625
0.16318032145500183,-0.041496533900499344,-0.055962905287742615,-0.9841333627700806,-0.03173828125,-0.0086669921875,1.002685546875
0.16320155560970306,-0.040841761976480484,-0.055227361619472504,-0.9841986894607544,-0.03076171875,-0.009521484375,1.0042724609375
0.1641504019498825,-0.04077375307679176,-0.05550142005085945,-0.9840283393859863,-0.0306396484375,-0.01025390625,1.002685546875
0.16416965425014496,-0.03949367627501488,-0.0539882555603981,-0.9841615557670593,-0.0306396484375,-0.009765625,1.0025634765625
0.16418464481830597,-0.03883443400263786,-0.0532364584505558,-0.9842262268066406,-0.0318603515625,-0.0096435546875,1.0028076171875
0.1650712937116623,-0.03862672299146652,-0.053433675318956375,-0.9840753674507141,-0.03125,-0.010009765625,1.0013427734375
0.16509178280830383,-0.037988435477018356,-0.05267862603068352,-0.9841374158859253,-0.031005859375,-0.0113525390625,1.00244140625
0.16510595381259918,-0.03734513372182846,-0.051918499171733856,-0.9842001795768738,-0.0316162109375,-0.0101318359375,1.0025634765625
0.16511979699134827,-0.03669622540473938,-0.05116733908653259,-0.9842615723609924,-0.03173828125,-0.009033203125,1.0029296875
0.165129154920578,-0.036034297198057175,-0.05042513087391853,-0.9843226671218872,-0.0321044921875,-0.00927734375,1.003173828125
0.16607216000556946,-0.036090634763240814,-0.0507352314889431,-0.9841461181640625,-0.03076171875,-0.01025390625,1.003662109375
0.16609080135822296,-0.03544165939092636,-0.049964603036642075,-0.984205961227417,-0.0318603515625,-0.0093994140625,1.0023193359375
0.1661042720079422,-0.03479356691241264,-0.04921163246035576,-0.9842647314071655,-0.0323486328125,-0.009521484375,1.0025634765625
0.1661193072795868,-0.034128207713365555,-0.048474833369255066,-0.9843220710754395,-0.0316162109375,-0.009521484375,1.0030517578125
0.1669550985097885,-0.03389475494623184,-0.0486660897731781,-0.9841791987419128,-0.0301513671875,-0.0098876953125,1.00244140625
0.16696833074092865,-0.03325013071298599,-0.04790933057665825,-0.9842361211776733,-0.03125,-0.0087890625,1.00341796875
0.16698217391967773,-0.032600194215774536,-0.047160301357507706,-0.9842916131019592,-0.031982421875,-0.0098876953125,1.0042724609375
0.16699601709842682,-0.03194661810994148,-0.0464041568338871,-0.9843466877937317,-0.031982421875,-0.0101318359375,1.003173828125
0.16789622604846954,-0.03189436346292496,-0.046739909797906876,-0.9841793179512024,-0.03076171875,-0.0106201171875,1.003662109375
0.16790948808193207,-0.031257595866918564,-0.04597537964582443,-0.984233558177948,-0.0308837890625,-0.0098876953125,1.0030517578125
0.16791726648807526,-0.03061084821820259,-0.045213598757982254,-0.9842878580093384,-0.031494140625,-0.0093994140625,1.001953125
0.16792559623718262,-0.02995876409113407,-0.044459592550992966,-0.9843407869338989,-0.030517578125,-0.009033203125,1.0035400390625
0.16883760690689087,-0.03009715862572193,-0.04479359835386276,-0.9841654896736145,-0.0318603515625,-0.009033203125,1.0032958984375
0.16884943842887878,-0.02945852093398571,-0.04403068125247955,-0.9842172265052795,-0.0322265625,-0.0089111328125,1.002685546875
0.16886283457279205,-0.028805382549762726,-0.04328152909874916,-0.9842674136161804,-0.0313720703125,-0.0093994140625,1.0042724609375
0.16888099908828735,-0.02816803753376007,-0.04252488911151886,-0.984315812587738,-0.03076171875,-0.0098876953125,1.003173828125
0.16969354450702667,-0.027945976704359055,-0.042784206569194794,-0.9841709136962891,-0.0313720703125,-0.0089111328125,1.003173828125
0.16970570385456085,-0.027306484058499336,-0.04202459007501602,-0.9842196702957153,-0.0311279296875,-0.0086669921875,1.0045166015625
0.1697186827659607,-0.02665826492011547,-0.041270289570093155,-0.9842671751976013,-0.0311279296875,-0.009521484375,1.0042724609375
0.16972610354423523,-0.026017460972070694,-0.04049594700336456,-0.9843150973320007,-0.030517578125,-0.0101318359375,1.00244140625
0.1697378009557724,-0.025383830070495605,-0.03972144424915314,-0.9843612313270569,-0.0308837890625,-0.009521484375,1.0030517578125
0.1706533282995224,-0.02554105594754219,-0.04003604128956795,-0.9841861128807068,-0.0311279296875,-0.00927734375,1.004150390625
0.1706605851650238,-0.02490442618727684,-0.039271965622901917,-0.9842319488525391,-0.0303955078125,-0.010009765625,1.003662109375
0.17066757380962372,-0.02428099513053894,-0.03849295526742935,-0.984277069568634,-0.0303955078125,-0.0113525390625,1.002197265625
0.17067354917526245,-0.023643091320991516,-0.03770695626735687,-0.9843219518661499,-0.031982421875,-0.01025390625,1.0037841796875
0.1714945137500763,-0.02359955944120884,-0.03810392692685127,-0.9841650724411011,-0.0323486328125,-0.0081787109375,1.0035400390625
0.17150741815567017,-0.022951457649469376,-0.03735603764653206,-0.9842067956924438,-0.03125,-0.0106201171875,1.0035400390625
0.17151303589344025,-0.022329935804009438,-0.0365709513425827,-0.9842496514320374,-0.0306396484375,-0.009765625,1.0035400390625
0.1715182512998581,-0.02168320305645466,-0.03580064699053764,-0.9842914342880249,-0.0311279296875,-0.007568359375,1.003173828125
0.17234669625759125,-0.021704792976379395,-0.03621404618024826,-0.9841310381889343,-0.031494140625,-0.0087890625,1.003662109375
0.17235298454761505,-0.021070260554552078,-0.03545121103525162,-0.9841716289520264,-0.0318603515625,-0.0106201171875,1.0030517578125
0.17235873639583588,-0.02044178545475006,-0.034665174782276154,-0.984211802482605,-0.0301513671875,-0.0096435546875,1.0018310546875
0.17236369848251343,-0.019812768325209618,-0.033880092203617096,-0.9842511415481567,-0.0302734375,-0.008544921875,1.002685546875
0.17236903309822083,-0.019184481352567673,-0.03310759738087654,-0.9842889904975891,-0.031005859375,-0.0098876953125,1.002197265625
0.1731976419687271,-0.019333645701408386,-0.03358893468976021,-0.9841243028640747,-0.031494140625,-0.0106201171875,1.0025634765625
0.17319756746292114,-0.01870684325695038,-0.03279637545347214,-0.9841631054878235,-0.03173828125,-0.0107421875,1.003662109375
0.1732121706008911,-0.018058719113469124,-0.03202606365084648,-0.9841980338096619,-0.03173828125,-0.007080078125,1.0029296875
0.17322766780853271,-0.01742052473127842,-0.031264957040548325,-0.9842312932014465,-0.0308837890625,-0.0087890625,1.0028076171875
0.1740584373474121,-0.017559152096509933,-0.031716566532850266,-0.9840677380561829,-0.0313720703125,-0.0089111328125,1.003173828125
0.17406366765499115,-0.01693352498114109,-0.030921857804059982,-0.9841031432151794,-0.0299072265625,-0.0098876953125,1.0045166015625
0.1740732043981552,-0.01630571484565735,-0.030143598094582558,-0.9841362237930298,-0.0316162109375,-0.0093994140625,1.0040283203125
0.1740831881761551,-0.015665223821997643,-0.029378507286310196,-0.9841679334640503,-0.0318603515625,-0.009765625,1.00341796875
0.17490805685520172,-0.01585559733211994,-0.029847368597984314,-0.9840044975280762,-0.0313720703125,-0.0098876953125,1.0030517578125
0.17491202056407928,-0.01522822491824627,-0.029068391770124435,-0.9840370416641235,-0.0313720703125,-0.0089111328125,1.003173828125
0.1749165654182434,-0.014594451524317265,-0.02829297073185444,-0.9840684533119202,-0.0306396484375,-0.00927734375,1.00341796875
0.17492638528347015,-0.013965998776257038,-0.027513111010193825,-0.9840978980064392,-0.0302734375,-0.009765625,1.00390625
0.17578913271427155,-0.014224101789295673,-0.027914609760046005,-0.9839292764663696,-0.030517578125,-0.0098876953125,1.003173828125
0.17579276859760284,-0.013602234423160553,-0.027126150205731392,-0.9839593768119812,-0.03076171875,-0.009033203125,1.0025634765625
0.1758015900850296,-0.012976293452084064,-0.026349825784564018,-0.9839873313903809,-0.0311279296875,-0.009033203125,1.00341796875
0.17581059038639069,-0.01233853492885828,-0.025577014312148094,-0.9840143918991089,-0.03173828125,-0.009521484375,1.00390625
0.17581923305988312,-0.01170995645225048,-0.024792790412902832,-0.9840406179428101,-0.0313720703125,-0.009521484375,1.00341796875
0.17657241225242615,-0.011972288601100445,-0.025347532704472542,-0.9838884472846985,-0.0308837890625,-0.0101318359375,1.0020751953125
0.1765807420015335,-0.01134688314050436,-0.024570349603891373,-0.9839140772819519,-0.0318603515625,-0.0093994140625,1.0025634765625
0.17658892273902893,-0.010703871957957745,-0.023796986788511276,-0.9839388132095337,-0.0325927734375,-0.009033203125,1.0032958984375
0.17659178376197815,-0.01006604265421629,-0.02301466464996338,-0.983963668346405,-0.0318603515625,-0.009033203125,1.0030517578125
0.17738665640354156,-0.010344067588448524,-0.023518627509474754,-0.983805775642395,-0.03076171875,-0.0107421875,1.0030517578125
0.1773894876241684,-0.009725162759423256,-0.022735746577382088,-0.9838300347328186,-0.0308837890625,-0.0091552734375,1.003662109375
0.17740274965763092,-0.009104421362280846,-0.021963246166706085,-0.9838511943817139,-0.0318603515625,-0.010009765625,1.003662109375
0.17741045355796814,-0.008467955514788628,-0.02120259404182434,-0.9838721752166748,-0.031982421875,-0.0089111328125,1.0032958984375
0.1782066822052002,-0.008780448697507381,-0.02172098681330681,-0.9837141036987305,-0.030029296875,-0.0098876953125,1.0028076171875
0.1782081425189972,-0.008158943615853786,-0.02091386914253235,-0.9837366938591003,-0.0323486328125,-0.00830078125,1.004150390625
0.17821069061756134,-0.007512095849961042,-0.02015991322696209,-0.9837571978569031,-0.032470703125,-0.0093994140625,1.0035400390625
0.1782185286283493,-0.006889158394187689,-0.01938292756676674,-0.9837759733200073,-0.03173828125,-0.0107421875,1.0035400390625
0.17892146110534668,-0.007220244035124779,-0.019970400258898735,-0.9836341738700867,-0.0303955078125,-0.0113525390625,1.002197265625
0.17892831563949585,-0.0066138519905507565,-0.019159670919179916,-0.9836533069610596,-0.0323486328125,-0.0101318359375,1.0032958984375
0.1789347380399704,-0.005983950104564428,-0.018367215991020203,-0.9836713671684265,-0.0325927734375,-0.0084228515625,1.0023193359375
0.17894716560840607,-0.005329912528395653,-0.017622478306293488,-0.9836863875389099,-0.0311279296875,-0.008056640625,1.0025634765625
0.1796829104423523,-0.005643018987029791,-0.01816619746387005,-0.9835407137870789,-0.0303955078125,-0.0118408203125,1.0032958984375
0.17968954145908356,-0.00505301496013999,-0.017328929156064987,-0.9835578203201294,-0.0311279296875,-0.01025390625,1.0035400390625
0.17969566583633423,-0.004404280334711075,-0.016550203785300255,-0.9835731983184814,-0.0323486328125,-0.0074462890625,1.0023193359375
0.1797078251838684,-0.0037789505440741777,-0.015774032101035118,-0.9835862517356873,-0.0308837890625,-0.009765625,1.0023193359375
0.17971478402614594,-0.003192158183082938,-0.01496050599962473,-0.9835999011993408,-0.0303955078125,-0.01171875,1.00341796875
0.1804671436548233,-0.003516583703458309,-0.015471997670829296,-0.9834530353546143,-0.0322265625,-0.0087890625,1.0023193359375
0.18046779930591583,-0.002875479171052575,-0.014686595648527145,-0.9834670424461365,-0.0313720703125,-0.0074462890625,1.00244140625
0.18047408759593964,-0.0022209591697901487,-0.013931992463767529,-0.9834786057472229,-0.03125,-0.00830078125,1.00244140625
0.18048065900802612,-0.0016247000312432647,-0.013124705292284489,-0.9834896326065063,-0.0302734375,-0.0113525390625,1.004150390625
0.18120607733726501,-0.0019773519597947598,-0.013677575625479221,-0.98334801197052,-0.0323486328125,-0.009521484375,1.003662109375
0.18121139705181122,-0.0013480819761753082,-0.012888407334685326,-0.9833588600158691,-0.0322265625,-0.008056640625,1.003173828125
0.181211918592453,-0.000727814098354429,-0.012112827971577644,-0.9833692908287048,-0.0306396484375,-0.009033203125,1.002685546875
0.18121783435344696,-0.00014793663285672665,-0.011298527009785175,-0.9833780527114868,-0.0303955078125,-0.011474609375,1.0035400390625
0.18204255402088165,-0.0004929545684717596,-0.011690790764987469,-0.9832209944725037,-0.0311279296875,-0.0103759765625,1.003662109375
0.182047501206398,0.0001561785611556843,-0.010921686887741089,-0.9832291603088379,-0.03173828125,-0.0069580078125,1.00146484375
