raw_line
=== RAM LOG DUMP BEGIN ===
"t_ms,qw,qx,qy,qz,ax,ay,az,gx,gy,gz,mx,my,mz"
"120011,0.903643,-0.146563,0.102042,0.389276,-0.525757,-0.767334,0.359985,-0.002131,0.014914,0.007457,0.000000,0.000000,0.000000"
"120036,0.903536,-0.147375,0.102249,0.389164,-0.526245,-0.769653,0.354004,0.031958,0.009587,0.010653,0.000000,0.000000,0.000000"
"120061,0.903434,-0.148218,0.102448,0.389029,-0.523315,-0.771973,0.350342,0.026632,0.011718,0.005326,0.000000,0.000000,0.000000"
"120091,0.903177,-0.149131,0.102922,0.389150,-0.524414,-0.777710,0.354492,-0.028762,0.009587,-0.002131,-57.000000,3.000000,19.000000"
"120116,0.903054,-0.150153,0.103000,0.389022,-0.523804,-0.770142,0.356934,-0.015979,0.004261,0.001065,0.000000,0.000000,0.000000"
"120140,0.902932,-0.151111,0.103125,0.388902,-0.521973,-0.768433,0.352295,-0.001065,0.007457,0.005326,0.000000,0.000000,0.000000"
"120160,0.902809,-0.151964,0.103299,0.388808,-0.523560,-0.770996,0.354492,0.021305,0.007457,0.013848,0.000000,0.000000,0.000000"
"120212,0.902559,-0.152794,0.103838,0.388920,-0.522339,-0.768066,0.350586,-0.013848,0.010653,0.002131,-57.000000,4.000000,23.000000"
"120238,0.902470,-0.153659,0.103989,0.388745,-0.523193,-0.773193,0.353516,0.020240,0.006392,-0.004261,0.000000,0.000000,0.000000"
"120260,0.902360,-0.154588,0.104142,0.388591,-0.523193,-0.773315,0.350342,0.007457,0.011718,0.000000,0.000000,0.000000,0.000000"
"120286,0.902092,-0.155300,0.104699,0.388780,-0.524780,-0.769775,0.357666,0.013848,0.009587,0.014914,-58.000000,4.000000,16.000000"
"120309,0.901977,-0.156124,0.104857,0.388675,-0.524658,-0.774414,0.353760,0.025566,0.003196,0.011718,0.000000,0.000000,0.000000"
"120334,0.901859,-0.157072,0.105018,0.388523,-0.520142,-0.768677,0.350098,0.004261,0.014914,0.001065,0.000000,0.000000,0.000000"
"120359,0.901735,-0.158052,0.105145,0.388378,-0.523315,-0.775513,0.356445,-0.004261,0.011718,0.001065,0.000000,0.000000,0.000000"
"120384,0.901496,-0.158271,0.105886,0.388644,-0.523437,-0.763062,0.357788,0.104396,-0.008522,0.051133,-57.000000,3.000000,28.000000"
"120409,0.901374,-0.158810,0.106157,0.388632,-0.521362,-0.783447,0.339844,0.084156,0.000000,0.039415,0.000000,0.000000,0.000000"
"120430,0.901253,-0.159931,0.106214,0.388438,-0.521118,-0.772827,0.349854,-0.034088,0.011718,-0.012783,0.000000,0.000000,0.000000"
"120450,0.901125,-0.160946,0.106278,0.388299,-0.522705,-0.774780,0.354492,-0.015979,0.003196,0.000000,0.000000,0.000000,0.000000"
"120475,0.900990,-0.161900,0.106350,0.388195,-0.520996,-0.771851,0.351685,-0.005326,-0.001065,0.008522,0.000000,0.000000,0.000000"
"120500,0.900727,-0.162583,0.106912,0.388366,-0.520386,-0.771240,0.346680,0.017044,0.005326,0.014914,-56.000000,7.000000,17.000000"
"120524,0.900610,-0.163487,0.107027,0.388225,-0.520996,-0.776245,0.350464,0.008522,0.004261,0.003196,0.000000,0.000000,0.000000"
"120549,0.900493,-0.164479,0.107115,0.388053,-0.518799,-0.776855,0.343750,-0.008522,0.007457,-0.005326,0.000000,0.000000,0.000000"
"120574,0.900355,-0.165505,0.107223,0.387907,-0.522095,-0.774414,0.352661,-0.014914,0.012783,0.001065,0.000000,0.000000,0.000000"
"120600,0.900070,-0.166321,0.107708,0.388086,-0.520630,-0.770142,0.354126,-0.010653,0.011718,0.008522,-59.000000,-7.000000,18.000000"
"120629,0.899963,-0.167179,0.107833,0.387929,-0.521240,-0.776367,0.352051,0.018109,0.003196,0.001065,0.000000,0.000000,0.000000"
"120649,0.899837,-0.168300,0.107852,0.387732,-0.521362,-0.781738,0.341553,-0.037284,0.006392,-0.013848,0.000000,0.000000,0.000000"
"120674,0.899691,-0.169460,0.107913,0.387550,-0.521851,-0.770264,0.350220,-0.042611,0.015979,-0.009587,0.000000,0.000000,0.000000"
"120700,0.899444,-0.170401,0.108368,0.387583,-0.521484,-0.772095,0.354492,-0.038350,0.008522,-0.020240,-58.000000,6.000000,20.000000"
"120725,0.899319,-0.171496,0.108397,0.387382,-0.520752,-0.773193,0.354370,-0.031958,0.006392,-0.013848,0.000000,0.000000,0.000000"
"120750,0.899189,-0.172486,0.108517,0.387211,-0.523071,-0.770508,0.350708,-0.007457,0.012783,-0.003196,0.000000,0.000000,0.000000"
"120775,0.899072,-0.173406,0.108658,0.387031,-0.523437,-0.776611,0.350342,0.007457,0.011718,-0.003196,0.000000,0.000000,0.000000"
"120801,0.898804,-0.174373,0.109126,0.387088,-0.520630,-0.776123,0.350464,-0.042611,0.013848,-0.014914,-59.000000,5.000000,20.000000"
"120821,0.898636,-0.175650,0.109176,0.386887,-0.520264,-0.772583,0.354980,-0.064981,0.025566,-0.013848,0.000000,0.000000,0.000000"
"120846,0.898474,-0.176754,0.109288,0.386728,-0.522339,-0.769043,0.361816,-0.029827,0.021305,-0.001065,0.000000,0.000000,0.000000"
"120872,0.898330,-0.177725,0.109409,0.386582,-0.522095,-0.770142,0.356079,-0.005326,0.011718,0.003196,0.000000,0.000000,0.000000"
"120898,0.898090,-0.178458,0.109964,0.386646,-0.520874,-0.770508,0.355835,0.004261,0.010653,-0.007457,-57.000000,1.000000,22.000000"
"120923,0.897999,-0.179483,0.110072,0.386352,-0.521606,-0.772583,0.353882,-0.010653,0.018109,-0.028762,0.000000,0.000000,0.000000"
"120948,0.897883,-0.180223,0.110259,0.386225,-0.522339,-0.762573,0.366333,0.041545,0.004261,0.011718,0.000000,0.000000,0.000000"
"120969,0.897731,-0.181029,0.110229,0.386209,-0.521729,-0.771851,0.361816,0.009587,-0.031958,0.025566,0.000000,0.000000,0.000000"
"120995,0.897346,-0.182296,0.110221,0.386508,-0.521484,-0.786255,0.358276,-0.142745,-0.051133,0.012783,-57.000000,0.000000,20.000000"
"121016,0.896952,-0.184492,0.109944,0.386461,-0.523071,-0.778931,0.336548,-0.267381,0.037284,-0.001065,0.000000,0.000000,0.000000"
"121043,0.896488,-0.187240,0.109638,0.386302,-0.528076,-0.767578,0.370972,-0.369647,0.079895,-0.029827,0.000000,0.000000,0.000000"
"121068,0.895548,-0.192083,0.109138,0.386247,-0.515625,-0.760986,0.375732,-0.779773,0.215183,-0.026632,0.000000,0.000000,0.000000"
"121093,0.894511,-0.196967,0.109022,0.386224,-0.538574,-0.758911,0.422729,-0.828776,0.229032,-0.084156,-56.000000,3.000000,21.000000"
"121117,0.893804,-0.200817,0.108805,0.385938,-0.519165,-0.753906,0.415161,-0.566721,0.193878,-0.054328,0.000000,0.000000,0.000000"
"121142,0.893023,-0.205808,0.108352,0.385245,-0.508057,-0.725342,0.415771,-0.784035,0.256729,-0.156594,0.000000,0.000000,0.000000"
"121170,0.891724,-0.213808,0.108053,0.383977,-0.500732,-0.677856,0.498657,-1.319863,0.550742,-0.279099,0.000000,0.000000,0.000000"
"121196,0.890343,-0.220473,0.107687,0.383515,-0.514648,-0.712646,0.493896,-1.194161,0.334493,-0.190682,-53.000000,6.000000,29.000000"
"121218,0.889171,-0.228848,0.108909,0.380976,-0.557129,-0.713135,0.511841,-1.242098,0.898018,-0.461259,0.000000,0.000000,0.000000"
"121244,0.888074,-0.237135,0.113634,0.377065,-0.528076,-0.680542,0.530884,-0.925715,1.578722,-0.547546,0.000000,0.000000,0.000000"
"121264,0.886709,-0.245927,0.115510,0.374063,-0.478638,-0.646973,0.522217,-1.260208,1.082309,-0.506001,0.000000,0.000000,0.000000"
"121299,0.884833,-0.255318,0.117659,0.371536,-0.493896,-0.633179,0.552490,-1.491370,1.090831,-0.495348,-53.000000,5.000000,27.000000"
"121319,0.882934,-0.264932,0.120630,0.368356,-0.481567,-0.596680,0.651855,-1.348625,1.362473,-0.460194,0.000000,0.000000,0.000000"
"121344,0.880757,-0.274493,0.121772,0.366187,-0.453003,-0.572876,0.684082,-1.508414,1.002414,-0.347276,0.000000,0.000000,0.000000"
"121369,0.877571,-0.287341,0.123414,0.363417,-0.477905,-0.558228,0.700195,-2.099636,1.376322,-0.441019,0.000000,0.000000,0.000000"
"121391,0.873848,-0.301804,0.129840,0.358393,-0.452393,-0.487183,0.758179,-2.226403,2.421346,-0.721184,-47.000000,2.000000,33.000000"
"121417,0.871823,-0.311334,0.139018,0.351666,-0.351074,-0.383057,0.868652,-1.051416,2.882605,-0.702009,0.000000,0.000000,0.000000"
"121442,0.869876,-0.317999,0.147194,0.347168,-0.297241,-0.391113,0.878296,-0.658333,2.374475,-0.283360,0.000000,0.000000,0.000000"
"121465,0.867094,-0.324845,0.152058,0.345690,-0.257813,-0.399658,0.892700,-1.051416,1.645833,0.091613,0.000000,0.000000,0.000000"
"121492,0.863675,-0.332426,0.156809,0.344918,-0.245483,-0.378296,0.904053,-1.345429,1.518002,0.076699,-44.000000,-8.000000,35.000000"
"121513,0.860456,-0.340534,0.162628,0.342351,-0.202393,-0.322632,0.942993,-1.217597,1.970739,-0.060720,0.000000,0.000000,0.000000"
"121538,0.857586,-0.347201,0.169748,0.339386,-0.135742,-0.270264,0.970459,-0.845820,2.107093,-0.021305,0.000000,0.000000,0.000000"
"121563,0.855432,-0.351608,0.178275,0.335896,-0.094849,-0.262817,0.985352,-0.291882,2.207228,0.017044,0.000000,0.000000,0.000000"
"121593,0.853524,-0.354474,0.184055,0.334617,-0.043701,-0.320557,0.982788,-0.327036,1.424258,0.173638,-42.000000,-4.000000,35.000000"
"121618,0.852049,-0.355966,0.182935,0.337395,-0.036621,-0.295044,0.959351,-0.606135,-0.099070,0.477238,0.000000,0.000000,0.000000"
"121640,0.850299,-0.357642,0.183523,0.339709,-0.034302,-0.270386,0.988892,-0.529436,0.245011,0.526241,0.000000,0.000000,0.000000"
"121660,0.849100,-0.358871,0.183374,0.341489,0.007080,-0.208984,1.035400,-0.449542,0.103331,0.354733,0.000000,0.000000,0.000000"
"121691,0.848260,-0.359371,0.183450,0.343006,-0.016602,-0.277222,1.030273,-0.306796,0.090547,0.292948,-39.000000,-19.000000,31.000000"
"121720,0.846184,-0.362219,0.182295,0.345744,-0.007324,-0.268921,1.035400,-0.885235,0.010653,0.452737,0.000000,0.000000,0.000000"
"121744,0.845330,-0.363197,0.180822,0.347576,0.052490,-0.179443,1.083496,-0.476173,-0.156594,0.251402,0.000000,0.000000,0.000000"
"121773,0.844112,-0.363965,0.179671,0.350318,0.041138,-0.191772,1.078125,-0.477238,-0.169377,0.462325,0.000000,0.000000,0.000000"
"121799,0.843212,-0.363998,0.178512,0.353033,0.020752,-0.199341,1.064453,-0.376038,-0.262055,0.405866,-37.000000,-8.000000,34.000000"
"121821,0.842556,-0.364147,0.176736,0.355331,-0.004517,-0.235474,1.034790,-0.357929,-0.303600,0.328101,0.000000,0.000000,0.000000"
"121847,0.841316,-0.365382,0.174855,0.357924,-0.003052,-0.200073,1.031616,-0.605070,-0.247141,0.368581,0.000000,0.000000,0.000000"
"121867,0.841916,-0.364582,0.172341,0.358546,-0.002075,-0.189819,1.040405,-0.106526,-0.420779,-0.071373,0.000000,0.000000,0.000000"
"121893,0.843729,-0.362325,0.169759,0.357804,-0.011719,-0.205200,1.006592,0.222640,-0.511327,-0.395213,-36.000000,-7.000000,37.000000"
"121919,0.845215,-0.360793,0.168043,0.356652,-0.063599,-0.259888,0.935669,0.203465,-0.235423,-0.341950,0.000000,0.000000,0.000000"
"121942,0.846691,-0.357332,0.167980,0.356667,-0.016113,-0.223633,0.974609,0.605070,-0.178964,0.037284,0.000000,0.000000,0.000000"
"121967,0.848036,-0.353394,0.168146,0.357317,-0.047607,-0.256714,0.983521,0.673247,-0.213053,0.188552,0.000000,0.000000,0.000000"
"121991,0.849256,-0.351323,0.167981,0.356538,-0.048828,-0.251221,0.926758,0.339819,-0.036219,-0.165116,-38.000000,-22.000000,34.000000"
"122017,0.849699,-0.351906,0.167006,0.355364,-0.050171,-0.234253,0.871094,-0.175769,0.076699,-0.287621,0.000000,0.000000,0.000000"
"122042,0.849626,-0.353228,0.166480,0.354471,-0.051880,-0.205811,0.916504,-0.321710,0.199204,-0.203465,0.000000,0.000000,0.000000"
"122070,0.850227,-0.352864,0.166123,0.353559,-0.061157,-0.250000,0.950562,0.028762,0.089482,-0.181095,0.000000,0.000000,0.000000"
"122096,0.851172,-0.351839,0.166097,0.352318,-0.094971,-0.287964,0.879883,0.158724,0.098004,-0.255663,-39.000000,-19.000000,40.000000"
"122113,0.851841,-0.352356,0.166084,0.350182,-0.145386,-0.331299,0.821167,-0.039415,0.301470,-0.384560,0.000000,0.000000,0.000000"
"122139,0.850999,-0.355648,0.166837,0.348541,-0.128052,-0.305298,0.858643,-0.588026,0.638093,-0.239684,0.000000,0.000000,0.000000"
"122163,0.849732,-0.358846,0.167565,0.348004,-0.045776,-0.142578,1.058716,-0.660464,0.547546,-0.045806,0.000000,0.000000,0.000000"
"122192,0.848781,-0.361167,0.168612,0.347418,-0.059448,-0.199951,0.973999,-0.493217,0.523045,-0.053263,-38.000000,-20.000000,38.000000"
"122217,0.846932,-0.365821,0.169321,0.346716,-0.028564,-0.185059,0.982544,-0.938498,0.680704,-0.075634,0.000000,0.000000,0.000000"
"122240,0.846542,-0.370123,0.167352,0.344048,0.042236,-0.121582,1.117920,-0.893757,0.292948,-0.697748,0.000000,0.000000,0.000000"
"122265,0.845093,-0.375054,0.166581,0.342642,0.120483,0.013550,1.046265,-1.042894,0.474043,-0.350472,0.000000,0.000000,0.000000"
"122290,0.843777,-0.377857,0.166386,0.342900,0.066162,-0.040771,1.031128,-0.727576,0.260990,-0.011718,-36.000000,-5.000000,37.000000"
"122316,0.841667,-0.382434,0.165833,0.343279,0.067383,-0.077393,0.995361,-1.074852,0.377104,0.029827,0.000000,0.000000,0.000000"
"122341,0.838496,-0.387859,0.165616,0.345052,0.108032,0.036255,1.015747,-1.326254,0.413323,0.325971,0.000000,0.000000,0.000000"
"122363,0.835643,-0.390093,0.166398,0.349056,0.102539,0.025513,0.970215,-0.771251,0.176834,0.861799,0.000000,0.000000,0.000000"
"122390,0.832697,-0.391462,0.166415,0.354513,0.075195,-0.031860,0.954224,-0.760599,-0.134223,1.053546,-30.000000,-14.000000,36.000000"
"122415,0.828832,-0.393457,0.166507,0.361255,0.082397,-0.005493,0.962158,-0.947020,-0.133158,1.345429,0.000000,0.000000,0.000000"
"122440,0.826121,-0.393941,0.169650,0.365449,0.060425,0.067139,0.979736,-0.305731,0.419714,1.120658,0.000000,0.000000,0.000000"
"122465,0.824047,-0.393966,0.171675,0.369141,0.072266,0.059448,0.980835,-0.241815,0.221575,0.920388,0.000000,0.000000,0.000000"
"122491,0.823895,-0.392148,0.170662,0.371876,0.069824,0.058716,1.008667,0.001065,-0.414388,0.422910,-29.000000,-16.000000,38.000000"
"122516,0.822785,-0.389558,0.164985,0.379537,0.040161,0.004639,0.976074,-0.438889,-1.580852,0.990696,0.000000,0.000000,0.000000"
"122541,0.821211,-0.387538,0.158969,0.387499,-0.054199,0.051147,0.923584,-0.614658,-1.609614,1.015197,0.000000,0.000000,0.000000"
"122561,0.818915,-0.386407,0.155458,0.394843,-0.081299,0.066895,0.969604,-0.606135,-1.061003,1.131311,0.000000,0.000000,0.000000"
"122588,0.816214,-0.386868,0.152920,0.400929,-0.128174,0.055664,0.993164,-0.803209,-0.675378,0.968325,-22.000000,-20.000000,45.000000"
"122613,0.812296,-0.385570,0.154497,0.409440,-0.057739,0.020996,0.889526,-0.330232,-0.281230,1.854625,0.000000,0.000000,0.000000"
"122638,0.810042,-0.385870,0.159489,0.411702,-0.269409,0.018188,0.949951,-0.003196,0.819188,0.891626,0.000000,0.000000,0.000000"
"122663,0.807783,-0.386614,0.164331,0.413535,-0.187988,0.066406,1.016846,-0.067112,0.871386,0.805340,0.000000,0.000000,0.000000"
"122689,0.806541,-0.386196,0.167248,0.415178,-0.235352,0.048096,1.012207,0.027697,0.439954,0.569916,-19.000000,-20.000000,43.000000"
"122710,0.806435,-0.386621,0.167217,0.415000,-0.245483,-0.026245,0.969238,-0.183225,0.148072,-0.061785,0.000000,0.000000,0.000000"
"122735,0.805952,-0.387338,0.165736,0.415863,-0.219727,0.031860,0.980225,-0.415453,-0.132093,0.012783,0.000000,0.000000,0.000000"
"122755,0.805624,-0.387787,0.167566,0.415346,-0.227173,0.125366,1.047852,-0.042611,0.474043,0.035154,0.000000,0.000000,0.000000"
"122776,0.805564,-0.387388,0.169144,0.415196,-0.212891,0.124634,0.999756,0.082025,0.325971,0.080960,0.000000,0.000000,0.000000"
"122802,0.806222,-0.385272,0.169166,0.415879,-0.278687,-0.001099,0.927368,0.231162,-0.175769,0.076699,-21.000000,-8.000000,43.000000"
"122831,0.807761,-0.382463,0.170679,0.414864,-0.317749,0.041870,0.826050,0.609331,0.118244,-0.131028,0.000000,0.000000,0.000000"
"122860,0.809029,-0.380163,0.170968,0.414389,-0.295044,0.103271,0.850586,0.386691,-0.070307,-0.133158,0.000000,0.000000,0.000000"
"122888,0.809982,-0.377178,0.173082,0.414377,-0.301147,0.119141,0.914917,0.609331,0.144876,0.131028,0.000000,0.000000,0.000000"
"122914,0.810654,-0.374977,0.174594,0.414426,-0.329590,0.075317,0.846924,0.393083,0.117179,0.087352,-20.000000,-25.000000,44.000000"
"122940,0.810232,-0.375200,0.175795,0.414543,-0.335083,0.057617,0.850830,-0.095874,0.300405,0.082025,0.000000,0.000000,0.000000"
"122963,0.808458,-0.377337,0.176285,0.415856,-0.299194,0.142334,0.944092,-0.605070,0.303600,0.270577,0.000000,0.000000,0.000000"
"122995,0.806631,-0.379379,0.175858,0.417723,-0.331421,0.123779,0.971558,-0.708401,0.094809,0.285491,-21.000000,-11.000000,38.000000"
"123015,0.805546,-0.377565,0.177238,0.420865,-0.314087,0.184204,0.867920,0.091613,-0.054328,0.705205,0.000000,0.000000,0.000000"
"123040,0.801676,-0.376261,0.182664,0.427056,-0.274902,0.100952,0.761963,0.034088,0.515588,1.723598,0.000000,0.000000,0.000000"
"123065,0.799851,-0.377455,0.183863,0.428905,-0.268799,-0.101929,0.906494,-0.394148,0.334493,0.481499,0.000000,0.000000,0.000000"
"123095,0.801031,-0.379634,0.180982,0.425996,-0.277588,-0.153442,1.035522,-0.528371,-0.002131,-0.895887,-19.000000,-8.000000,40.000000"
"123120,0.803956,-0.380164,0.176801,0.421747,-0.213623,0.028687,1.077271,-0.168312,-0.301470,-1.288970,0.000000,0.000000,0.000000"
"123142,0.808842,-0.377357,0.172268,0.416773,-0.171997,-0.006836,0.897095,0.513457,-0.651942,-1.475391,0.000000,0.000000,0.000000"
"123168,0.813755,-0.373637,0.169119,0.411821,-0.164429,-0.093994,0.768555,0.781904,-0.499609,-1.326254,0.000000,0.000000,0.000000"
"123190,0.815124,-0.374074,0.168843,0.408819,-0.109741,0.000977,0.785156,-0.011718,0.273773,-0.660464,-23.000000,-21.000000,45.000000"
"123216,0.815640,-0.373957,0.169392,0.407670,-0.017212,0.182129,0.949707,0.035154,0.249272,-0.205596,0.000000,0.000000,0.000000"
"123236,0.816037,-0.372135,0.170588,0.408043,-0.039185,0.130737,0.884155,0.305731,0.107592,0.159790,0.000000,0.000000,0.000000"
"123259,0.817329,-0.369542,0.171758,0.407322,-0.074585,0.010132,0.795166,0.537959,0.099070,-0.058590,0.000000,0.000000,0.000000"
"123284,0.818978,-0.367861,0.172708,0.405122,-0.049927,-0.143311,0.819458,0.467651,0.251402,-0.348341,0.000000,0.000000,0.000000"
"123310,0.819663,-0.368371,0.173799,0.402800,-0.019165,-0.208130,0.744019,0.026632,0.485761,-0.369647,-23.000000,-10.000000,41.000000"
"123335,0.821263,-0.369832,0.176398,0.397032,0.038208,-0.257446,0.783325,0.233293,1.050351,-0.885235,0.000000,0.000000,0.000000"
"123360,0.823087,-0.372526,0.179125,0.389445,0.179687,-0.044067,1.163696,0.096939,1.281513,-1.266599,0.000000,0.000000,0.000000"
"123383,0.824281,-0.374012,0.180634,0.384770,0.303711,0.316284,1.335083,0.036219,0.777643,-0.807470,0.000000,0.000000,0.000000"
"123409,0.825776,-0.373092,0.181624,0.381980,0.244263,0.218018,1.265503,0.340885,0.362190,-0.470847,-26.000000,-26.000000,38.000000"
"123435,0.827575,-0.372730,0.181090,0.378679,0.222900,0.068359,1.231201,0.187487,0.182160,-0.699879,0.000000,0.000000,0.000000"
"123459,0.828880,-0.373095,0.180170,0.375894,0.274536,0.186646,1.207764,-0.021305,0.148072,-0.638093,0.000000,0.000000,0.000000"
"123483,0.830662,-0.370810,0.180119,0.374243,0.241211,0.068604,1.068848,0.482565,-0.004261,-0.317449,0.000000,0.000000,0.000000"
"123509,0.833860,-0.367266,0.179594,0.370863,0.207642,-0.109253,1.037720,0.828776,-0.084156,-0.683900,-27.000000,-25.000000,35.000000"
"123535,0.835686,-0.367649,0.180390,0.365954,0.320068,0.095459,0.902466,0.224771,0.574178,-0.892692,0.000000,0.000000,0.000000"
"123560,0.835569,-0.370614,0.182453,0.362187,0.346191,0.161865,1.067017,-0.302535,0.957673,-0.565655,0.000000,0.000000,0.000000"
"123580,0.835667,-0.371206,0.184437,0.360346,0.339844,0.139038,1.136963,0.034088,0.622114,-0.177899,0.000000,0.000000,0.000000"
"123606,0.835644,-0.371102,0.186515,0.359437,0.312134,0.084961,1.035889,0.095874,0.518784,0.003196,-30.000000,-15.000000,37.000000"
"123632,0.834607,-0.373767,0.188068,0.358273,0.274536,0.021484,1.007324,-0.446346,0.695618,-0.085221,0.000000,0.000000,0.000000"
"123657,0.833304,-0.376309,0.189266,0.358013,0.264526,-0.021240,1.107544,-0.503870,0.570982,0.064981,0.000000,0.000000,0.000000"
"123682,0.830936,-0.378555,0.191758,0.359820,0.244019,0.000854,0.979614,-0.520914,0.648746,0.592287,0.000000,0.000000,0.000000"
"123708,0.829018,-0.382038,0.194056,0.359329,0.480347,-0.019897,0.857788,-0.605070,0.871386,0.135289,-28.000000,-28.000000,35.000000"
"123733,0.830935,-0.377215,0.200559,0.356415,0.010620,0.203491,1.311401,1.425324,0.981108,0.047937,0.000000,0.000000,0.000000"
"123758,0.833750,-0.371346,0.200905,0.355810,0.214111,-0.048340,1.081421,1.160073,-0.306796,-0.019175,0.000000,0.000000,0.000000"
"123783,0.834125,-0.371609,0.200378,0.354951,0.244263,-0.011475,0.912354,-0.092678,0.101200,-0.198139,0.000000,0.000000,0.000000"
"123809,0.834317,-0.371569,0.200809,0.354300,0.232056,-0.028687,0.907959,-0.004261,0.236489,-0.070307,-29.000000,-21.000000,32.000000"
"123830,0.834678,-0.371111,0.201734,0.353403,0.268188,0.020020,0.960205,0.128897,0.294013,-0.069242,0.000000,0.000000,0.000000"
"123853,0.834625,-0.371026,0.202174,0.353365,0.296387,0.082520,1.017456,-0.036219,0.189617,0.046872,0.000000,0.000000,0.000000"
"123878,0.834230,-0.370751,0.203728,0.353694,0.274780,0.067871,0.834473,0.036219,0.349407,0.224771,0.000000,0.000000,0.000000"
"123904,0.833238,-0.371101,0.206419,0.354104,0.293091,0.020874,0.872925,-0.035154,0.611462,0.346211,-28.000000,-30.000000,35.000000"
"123932,0.833486,-0.369531,0.201957,0.357717,0.446533,-0.039795,1.226929,-0.251402,-1.008805,0.346211,0.000000,0.000000,0.000000"
"123957,0.839056,-0.359998,0.183203,0.364449,0.269775,-0.032227,0.841431,0.318514,-4.404868,-0.250337,0.000000,0.000000,0.000000"
"123982,0.845027,-0.351405,0.159279,0.370236,0.111938,0.033447,0.926270,-0.173638,-5.156945,-0.864995,0.000000,0.000000,0.000000"
"124008,0.846874,-0.348983,0.154850,0.370184,0.103271,-0.240234,1.270142,0.116114,-0.851146,-0.362190,-30.000000,-21.000000,41.000000"
"124029,0.847117,-0.349715,0.156691,0.368157,0.041992,0.140625,1.030884,-0.018109,0.605070,-0.265251,0.000000,0.000000,0.000000"
"124050,0.848024,-0.349290,0.155853,0.366827,-0.120972,-0.042114,0.981323,0.004261,0.000000,-0.346211,0.000000,0.000000,0.000000"
"124075,0.849291,-0.348974,0.154753,0.364656,-0.080688,-0.017334,1.001099,0.019175,0.011718,-0.534763,0.000000,0.000000,0.000000"
"124097,0.850178,-0.348456,0.154008,0.363396,-0.062500,-0.012817,1.021851,0.009587,0.002131,-0.333428,-30.000000,-22.000000,39.000000"
"124122,0.851075,-0.348010,0.153139,0.362089,-0.050903,-0.035156,0.984497,0.008522,-0.004261,-0.335558,0.000000,0.000000,0.000000"
"124150,0.853230,-0.347858,0.150968,0.358054,-0.073730,-0.078735,1.007935,0.036219,-0.051133,-0.987500,0.000000,0.000000,0.000000"
"124175,0.855570,-0.347634,0.148505,0.353690,-0.066406,0.017334,1.016968,0.042611,-0.098004,-1.085504,0.000000,0.000000,0.000000"
"124201,0.856845,-0.346855,0.147026,0.351984,-0.020020,0.127563,1.000610,0.026632,-0.151268,-0.506001,-33.000000,-15.000000,40.000000"
"124230,0.856910,-0.346129,0.146936,0.352577,-0.026123,-0.014160,0.993774,-0.005326,0.000000,0.110787,0.000000,0.000000,0.000000"
"124250,0.857196,-0.345454,0.146654,0.352661,-0.042725,0.003540,1.000732,0.000000,-0.003196,-0.010653,0.000000,0.000000,0.000000"
"124272,0.857455,-0.344785,0.146399,0.352790,-0.039917,0.003052,1.000854,-0.002131,0.000000,0.001065,0.000000,0.000000,0.000000"
"124297,0.858354,-0.344272,0.145667,0.351406,-0.090576,-0.126587,0.992432,0.013848,0.019175,-0.346211,-34.000000,-27.000000,44.000000"
"124322,0.860736,-0.344180,0.143318,0.346603,-0.065186,-0.159058,1.002686,0.053263,-0.027697,-1.137702,0.000000,0.000000,0.000000"
"124350,0.862426,-0.344043,0.141872,0.343114,0.018921,0.017822,1.000000,0.028762,0.042611,-0.812797,0.000000,0.000000,0.000000"
"124375,0.865242,-0.342791,0.141001,0.337593,-0.014160,0.081177,0.983032,0.387756,0.164051,-1.179248,0.000000,0.000000,0.000000"
"124401,0.869535,-0.339675,0.141437,0.329433,-0.102417,0.116333,1.009888,0.944889,0.370712,-1.633050,-37.000000,-22.000000,46.000000"
"124421,0.872860,-0.339390,0.139430,0.321696,-0.059937,0.010376,1.000122,0.241815,0.165116,-1.700162,0.000000,0.000000,0.000000"
"124446,0.877424,-0.341324,0.134068,0.309275,-0.051147,-0.148560,0.998779,-0.134223,0.020240,-2.866626,0.000000,0.000000,0.000000"
"124471,0.882590,-0.343055,0.128204,0.294808,0.017822,-0.051636,1.010254,-0.039415,0.036219,-3.295928,0.000000,0.000000,0.000000"
"124497,0.886094,-0.342616,0.125258,0.285940,0.047363,0.154785,1.019531,0.218379,0.017044,-2.017611,-42.000000,-12.000000,40.000000"
"124522,0.889144,-0.344989,0.119671,0.275835,-0.006592,-0.016235,0.989014,-0.401605,-0.140615,-2.405367,0.000000,0.000000,0.000000"
"124547,0.895068,-0.349015,0.109153,0.255200,-0.052002,-0.088745,1.005005,-0.519849,-0.270577,-4.814995,0.000000,0.000000,0.000000"
"124568,0.903135,-0.349732,0.098844,0.228615,-0.045654,-0.113770,0.991577,0.358994,-0.038350,-5.900499,0.000000,0.000000,0.000000"
"124594,0.909077,-0.350400,0.090878,0.206251,-0.042603,-0.111572,0.989258,0.210922,0.034088,-4.935370,-48.000000,4.000000,42.000000"
"124614,0.912711,-0.349569,0.086612,0.193025,-0.101685,0.125732,1.009277,0.321710,0.101200,-2.858104,0.000000,0.000000,0.000000"
"124636,0.915049,-0.348782,0.083700,0.184473,-0.032715,0.051392,0.999756,0.197074,0.056459,-1.848234,0.000000,0.000000,0.000000"
"124660,0.917189,-0.350301,0.078339,0.172963,-0.035156,0.075806,1.002197,-0.281230,-0.101200,-2.592854,0.000000,0.000000,0.000000"
"124685,0.920420,-0.349832,0.072924,0.158514,-0.011597,-0.040283,1.017090,0.205596,0.015979,-3.131877,0.000000,0.000000,0.000000"
"124711,0.923203,-0.349573,0.067986,0.144474,-0.006348,-0.045410,0.993530,0.128897,-0.001065,-3.051982,-47.000000,8.000000,39.000000"
"124737,0.924810,-0.349136,0.065056,0.136375,-0.025146,0.026489,0.996704,0.067112,0.039415,-1.744903,0.000000,0.000000,0.000000"
"124762,0.926036,-0.348582,0.062928,0.130338,-0.006226,0.011963,0.997681,0.057524,0.046872,-1.292166,0.000000,0.000000,0.000000"
"124782,0.927391,-0.347034,0.061881,0.125237,-0.018921,0.037720,0.995972,0.265251,0.149137,-1.037567,0.000000,0.000000,0.000000"
"124808,0.929556,-0.344043,0.060880,0.117699,0.050903,-0.009521,1.028076,0.612527,0.214118,-1.481783,-49.000000,25.000000,40.000000"
"124833,0.932002,-0.340795,0.058701,0.108561,-0.089111,-0.051880,0.997070,0.674312,0.151268,-1.878061,0.000000,0.000000,0.000000"
"124858,0.934175,-0.338981,0.054991,0.096880,-0.017944,-0.093384,1.001099,0.387756,0.087352,-2.453304,0.000000,0.000000,0.000000"
"124883,0.935300,-0.339734,0.050345,0.085205,-0.028442,-0.042969,0.994873,-0.183225,-0.035154,-2.527873,0.000000,0.000000,0.000000"
"124909,0.936334,-0.340570,0.045679,0.072137,-0.034790,0.014282,0.993652,-0.193878,-0.028762,-2.784601,-45.000000,25.000000,40.000000"
"124930,0.937675,-0.339751,0.041281,0.060248,-0.054687,-0.009277,1.023682,0.129962,-0.013848,-2.544917,0.000000,0.000000,0.000000"
"124951,0.937381,-0.342652,0.036126,0.051000,0.063599,-0.204468,0.977539,-0.703074,-0.246076,-2.082592,0.000000,0.000000,0.000000"
"124974,0.936957,-0.344820,0.032960,0.046098,-0.024414,-0.046265,1.009399,-0.592287,-0.209857,-1.149420,0.000000,0.000000,0.000000"
"125002,0.937629,-0.343071,0.033295,0.045222,0.004272,-0.032837,0.999023,0.227967,0.050067,-0.101200,-44.000000,34.000000,42.000000"
"125022,0.937680,-0.342939,0.033046,0.045363,-0.045166,0.029297,1.000122,-0.135289,-0.043676,0.002131,0.000000,0.000000,0.000000"
"125047,0.937983,-0.342110,0.033042,0.045347,-0.029785,-0.000610,1.000732,0.015979,0.008522,-0.005326,0.000000,0.000000,0.000000"
"125072,0.938252,-0.341372,0.033011,0.045374,-0.027954,-0.010986,1.001953,-0.004261,0.002131,0.001065,0.000000,0.000000,0.000000"
"125098,0.938503,-0.340668,0.033360,0.045225,-0.027710,-0.009644,1.001343,-0.003196,0.002131,0.000000,-45.000000,21.000000,45.000000"
"125123,0.938775,-0.339919,0.033325,0.045242,-0.027954,-0.008057,1.001221,-0.002131,0.002131,-0.001065,0.000000,0.000000,0.000000"
"125152,0.939044,-0.339174,0.033293,0.045264,-0.028687,-0.008423,1.001831,-0.003196,0.002131,0.000000,0.000000,0.000000,0.000000"
"125172,0.939315,-0.338423,0.033264,0.045296,-0.028931,-0.009399,0.999878,-0.002131,0.002131,0.002131,0.000000,0.000000,0.000000"
"125198,0.939566,-0.337706,0.033622,0.045159,-0.030029,-0.008667,1.000122,-0.001065,0.002131,0.001065,-45.000000,20.000000,43.000000"
"125223,0.939837,-0.336954,0.033594,0.045174,-0.030396,-0.008301,1.000854,-0.002131,0.003196,-0.001065,0.000000,0.000000,0.000000"
"125252,0.940106,-0.336201,0.033570,0.045193,-0.028809,-0.008667,1.001587,-0.002131,0.004261,0.000000,0.000000,0.000000,0.000000"
"125277,0.940249,-0.335588,0.034946,0.045735,-0.221069,0.026367,0.870972,-0.025566,0.190682,0.157659,0.000000,0.000000,0.000000"
"125302,0.940405,-0.334925,0.036060,0.046513,-0.177124,-0.005981,1.014648,-0.011718,0.068177,0.233293,-42.000000,35.000000,46.000000"
"125327,0.940690,-0.334208,0.036619,0.045467,0.190674,-0.076904,0.944336,0.019175,0.233293,-0.121440,0.000000,0.000000,0.000000"
"125348,0.940990,-0.333413,0.035762,0.045762,0.058716,-0.046997,1.061035,0.001065,-0.152333,0.011718,0.000000,0.000000,0.000000"
"125368,0.941439,-0.332697,0.034273,0.042791,-0.013428,-0.036255,0.965210,0.010653,-0.068177,-0.658333,0.000000,0.000000,0.000000"
"125394,0.942370,-0.331294,0.031797,0.034241,0.082886,0.056152,1.008789,0.205596,0.042611,-1.735316,-42.000000,32.000000,43.000000"
"125416,0.944351,-0.326955,0.028799,0.021704,-0.102905,0.037109,0.998657,0.844755,0.223706,-2.563026,0.000000,0.000000,0.000000"
"125441,0.945573,-0.324158,0.026178,0.011277,-0.029175,-0.078247,0.989746,0.492152,0.181095,-2.132659,0.000000,0.000000,0.000000"
"125466,0.945474,-0.324854,0.023301,0.002292,-0.002563,-0.062378,0.983154,-0.262055,0.056459,-1.887648,0.000000,0.000000,0.000000"
"125492,0.944703,-0.327227,0.020238,-0.006951,-0.016479,0.019775,1.003418,-0.608266,-0.041545,-1.903627,-35.000000,42.000000,45.000000"
"125517,0.944790,-0.326593,0.014989,-0.022013,0.031250,-0.035522,1.019409,0.029827,0.010653,-3.179814,0.000000,0.000000,0.000000"
"125539,0.944755,-0.325503,0.009495,-0.037361,-0.080688,-0.051392,1.010620,0.109722,-0.044741,-3.268231,0.000000,0.000000,0.000000"
"125565,0.944513,-0.324612,0.004704,-0.050002,-0.061523,-0.041992,1.002563,0.047937,-0.090547,-2.710033,0.000000,0.000000,0.000000"
"125585,0.944155,-0.323380,-0.000467,-0.063224,-0.012207,-0.034302,0.999512,0.108657,-0.115049,-2.836799,0.000000,0.000000,0.000000"
"125619,0.943113,-0.322099,-0.007202,-0.082083,0.093628,-0.101685,1.000366,0.121440,-0.117179,-3.919108,-26.000000,47.000000,51.000000"
"125639,0.942138,-0.320602,-0.012747,-0.097095,-0.006226,0.009888,0.991455,0.124636,-0.074569,-3.206446,0.000000,0.000000,0.000000"
"125664,0.941032,-0.318994,-0.017745,-0.111293,-0.026855,0.006348,0.994629,0.129962,-0.031958,-3.024286,0.000000,0.000000,0.000000"
"125690,0.939789,-0.317629,-0.021667,-0.124255,-0.087280,0.045166,1.009399,0.088417,0.005326,-2.654639,-14.000000,52.000000,50.000000"
"125711,0.938705,-0.316196,-0.025280,-0.134962,-0.055298,-0.026733,1.005493,0.084156,-0.013848,-2.283927,0.000000,0.000000,0.000000"
"125736,0.937965,-0.314996,-0.027838,-0.142209,-0.021973,-0.046509,1.004517,0.050067,-0.037284,-1.553155,0.000000,0.000000,0.000000"
"125761,0.937021,-0.313684,-0.030826,-0.150475,-0.011597,-0.063599,1.001587,0.064981,-0.053263,-1.776861,0.000000,0.000000,0.000000"
"125783,0.935390,-0.312037,-0.034975,-0.162650,-0.050903,0.004150,0.993286,0.098004,-0.026632,-2.607767,0.000000,0.000000,0.000000"
"125810,0.933761,-0.310555,-0.038274,-0.173729,-0.057129,0.001465,1.006104,0.082025,-0.014914,-2.287123,-5.000000,36.000000,48.000000"
"125835,0.933333,-0.309535,-0.039797,-0.177466,-0.044189,0.005615,1.001953,0.031958,-0.078830,-0.821319,0.000000,0.000000,0.000000"
"125859,0.932186,-0.308136,-0.042364,-0.185169,-0.019531,-0.071533,0.984131,0.063916,-0.023436,-1.655421,0.000000,0.000000,0.000000"
"125884,0.928865,-0.305796,-0.048509,-0.203337,-0.001099,0.002319,1.003174,0.147006,-0.022371,-3.907390,0.000000,0.000000,0.000000"
"125910,0.926323,-0.303902,-0.052436,-0.216378,-0.080933,0.070679,1.001831,0.108657,-0.009587,-2.736664,0.000000,33.000000,47.000000"
"125936,0.924700,-0.302442,-0.055238,-0.224516,-0.102539,-0.089722,0.997437,0.068177,-0.071373,-1.785383,0.000000,0.000000,0.000000"
"125961,0.919337,-0.299527,-0.062538,-0.247369,-0.159424,-0.318970,0.976807,0.191748,-0.030893,-5.000351,0.000000,0.000000,0.000000"
"125981,0.912499,-0.295687,-0.071532,-0.273492,0.035645,0.135620,0.997803,0.257794,-0.042611,-5.714078,0.000000,0.000000,0.000000"
"126007,0.908140,-0.292915,-0.076425,-0.289209,0.031372,0.069580,1.010742,0.170442,-0.002131,-3.375823,11.000000,33.000000,44.000000"
"126033,0.904505,-0.290517,-0.080481,-0.301652,0.013794,-0.073364,0.999634,0.127832,-0.021305,-2.748382,0.000000,0.000000,0.000000"
"126057,0.898145,-0.287257,-0.086931,-0.321345,-0.005493,-0.141724,1.011597,0.166181,-0.041545,-4.388889,0.000000,0.000000,0.000000"
"126082,0.887561,-0.282136,-0.096883,-0.351069,-0.024048,-0.162476,0.997925,0.320645,-0.060720,-6.703709,0.000000,0.000000,0.000000"
"126108,0.877121,-0.277233,-0.105620,-0.377684,0.025146,0.056763,1.003662,0.268447,-0.046872,-6.010221,16.000000,22.000000,48.000000"
"126129,0.868349,-0.273010,-0.112400,-0.398500,0.019409,0.019897,1.009399,0.200270,-0.014914,-4.773450,0.000000,0.000000,0.000000"
"126155,0.859750,-0.268876,-0.118707,-0.417666,0.041504,0.032959,1.002197,0.194943,-0.027697,-4.441087,0.000000,0.000000,0.000000"
"126175,0.852033,-0.265156,-0.123909,-0.434026,-0.034790,0.029907,1.001099,0.160855,-0.017044,-3.824299,0.000000,0.000000,0.000000"
"126203,0.844040,-0.261382,-0.128894,-0.450181,-0.017700,0.095093,0.995361,0.157659,-0.010653,-3.796602,15.000000,-1.000000,54.000000"
"126223,0.837761,-0.258181,-0.132503,-0.462539,-0.131714,-0.000244,1.003662,0.133158,0.015979,-2.932673,0.000000,0.000000,0.000000"
"126248,0.829612,-0.254447,-0.137191,-0.477680,-0.032349,-0.074951,1.010132,0.159790,-0.026632,-3.644269,0.000000,0.000000,0.000000"
"126273,0.821358,-0.250783,-0.141798,-0.492313,-0.019409,-0.005249,0.996216,0.139550,-0.043676,-3.552657,0.000000,0.000000,0.000000"
"126299,0.814605,-0.247526,-0.145043,-0.504095,-0.010864,0.092041,0.991211,0.124636,0.023436,-2.864496,11.000000,-15.000000,50.000000"
"126320,0.807772,-0.244302,-0.148481,-0.515533,-0.019775,-0.015381,1.007324,0.126766,-0.021305,-2.818689,0.000000,0.000000,0.000000"
"126346,0.802962,-0.241862,-0.150783,-0.523469,-0.096436,0.013550,1.005127,0.091613,-0.031958,-1.966478,0.000000,0.000000,0.000000"
"126370,0.798962,-0.239755,-0.152597,-0.529991,-0.063477,0.011597,0.998657,0.069242,-0.033023,-1.619202,0.000000,0.000000,0.000000"
"126396,0.791808,-0.236826,-0.155630,-0.541047,-0.058228,-0.018066,1.005615,0.109722,-0.035154,-2.786732,5.000000,-17.000000,50.000000"
"126416,0.778123,-0.231362,-0.161824,-0.561079,-0.040771,-0.030151,1.000854,0.208792,-0.029827,-5.122857,0.000000,0.000000,0.000000"
"126439,0.765739,-0.226822,-0.167053,-0.578177,-0.131592,0.049194,0.996826,0.109722,-0.075634,-4.437891,0.000000,0.000000,0.000000"
"126464,0.759721,-0.223891,-0.169863,-0.586381,-0.087769,0.082031,1.004150,0.166181,-0.080960,-2.168878,0.000000,0.000000,0.000000"
"126489,0.755972,-0.221818,-0.170991,-0.591663,-0.014893,-0.002930,0.985352,0.056459,0.013848,-1.363539,0.000000,0.000000,0.000000"
"126515,0.752480,-0.219998,-0.171673,-0.596576,-0.019775,0.028442,0.999390,0.064981,0.041545,-1.264469,0.000000,-17.000000,50.000000"
"126540,0.748186,-0.217616,-0.172747,-0.602511,-0.000854,-0.000122,1.006470,0.053263,0.068177,-1.533981,0.000000,0.000000,0.000000"
"126563,0.742499,-0.214887,-0.174494,-0.609977,-0.061157,0.021973,1.001221,0.073503,0.027697,-1.970739,0.000000,0.000000,0.000000"
"126588,0.736508,-0.212172,-0.176357,-0.617606,-0.059082,-0.002808,1.005493,0.075634,0.003196,-2.039981,0.000000,0.000000,0.000000"
"126614,0.732103,-0.210397,-0.177329,-0.623148,-0.078247,-0.083252,0.991699,0.068177,0.000000,-1.488174,-5.000000,-23.000000,48.000000"
"126639,0.729590,-0.208442,-0.177813,-0.626605,-0.111572,0.085571,0.986328,0.074569,0.061785,-0.899083,0.000000,0.000000,0.000000"
"126664,0.723073,-0.205555,-0.180110,-0.634407,-0.142090,0.142456,1.025269,0.108657,-0.044741,-2.136920,0.000000,0.000000,0.000000"
"126689,0.713614,-0.201977,-0.183245,-0.645276,0.016602,-0.143311,0.985352,0.153398,-0.066046,-3.054113,0.000000,0.000000,0.000000"
"126715,0.705382,-0.199212,-0.185308,-0.654532,-0.031860,0.009277,0.993164,0.062851,-0.011718,-2.574744,-10.000000,-30.000000,47.000000"
"126741,0.698942,-0.195359,-0.187172,-0.662028,-0.062866,-0.009644,0.999878,0.243946,0.127832,-2.118811,0.000000,0.000000,0.000000"
"126761,0.696122,-0.193198,-0.185854,-0.665993,0.028931,-0.158936,1.016113,-0.093743,0.349407,-0.984304,0.000000,0.000000,0.000000"
"126786,0.696640,-0.193212,-0.184962,-0.665696,0.018188,-0.091064,1.050903,-0.071373,-0.043676,0.129962,0.000000,0.000000,0.000000"
"126812,0.696925,-0.192791,-0.183906,-0.665812,-0.047607,-0.014526,0.966553,0.006392,0.067112,0.046872,-11.000000,-19.000000,45.000000"
"126837,0.696173,-0.192232,-0.183888,-0.666765,-0.041748,0.010376,1.018066,0.001065,-0.088417,-0.251402,0.000000,0.000000,0.000000"
"126862,0.694960,-0.191423,-0.183977,-0.668236,-0.022217,0.019897,0.984375,0.010653,-0.067112,-0.396278,0.000000,0.000000,0.000000"
"126887,0.694100,-0.190602,-0.183710,-0.669438,-0.031860,-0.042114,1.014526,0.006392,-0.013848,-0.308927,0.000000,0.000000,0.000000"
"126910,0.692147,-0.189876,-0.183594,-0.671693,-0.011841,-0.022461,1.000610,0.015979,-0.006392,-0.596548,-14.000000,-34.000000,43.000000"
"126935,0.689980,-0.188257,-0.183527,-0.674392,-0.060303,-0.004639,0.974365,0.029827,0.074569,-0.722249,0.000000,0.000000,0.000000"
"126955,0.686640,-0.185938,-0.183555,-0.678425,-0.044800,-0.046875,1.037109,0.058590,0.162985,-1.100418,0.000000,0.000000,0.000000"
"126975,0.678339,-0.183621,-0.185618,-0.686793,0.011963,-0.233398,1.013306,0.045806,-0.125701,-2.474609,0.000000,0.000000,0.000000"
"127001,0.668742,-0.180911,-0.187956,-0.696223,0.096680,-0.086914,0.969849,0.099070,-0.076699,-2.773949,-22.000000,-35.000000,49.000000"
"127025,0.665959,-0.173846,-0.191483,-0.699722,-0.096680,0.141968,1.030640,1.173921,0.361125,-1.227185,0.000000,0.000000,0.000000"
"127050,0.662565,-0.174240,-0.191387,-0.702865,0.003296,-0.214111,1.020020,-0.233293,-0.223706,-0.908670,0.000000,0.000000,0.000000"
"127070,0.659676,-0.174485,-0.190576,-0.705736,0.032104,0.038330,0.950928,-0.355798,-0.113983,-0.741424,0.000000,0.000000,0.000000"
"127097,0.654700,-0.171613,-0.191736,-0.710742,-0.119263,0.214966,0.997192,0.238619,0.086286,-1.458347,-26.000000,-22.000000,50.000000"
"127122,0.645533,-0.168673,-0.194040,-0.719156,-0.079590,0.047607,1.053223,0.077764,-0.122505,-2.587527,0.000000,0.000000,0.000000"
"127146,0.615458,-0.159526,-0.201772,-0.745018,0.139771,-0.064941,0.982300,0.329167,-0.145941,-8.302670,0.000000,0.000000,0.000000"
"127171,0.592836,-0.151568,-0.206955,-0.763376,-0.071777,0.092529,0.970825,0.296144,0.044741,-6.099704,0.000000,0.000000,0.000000"
"127197,0.587631,-0.149772,-0.207352,-0.767635,-0.088501,0.014771,1.022827,0.051133,0.008522,-1.319863,-39.000000,-12.000000,51.000000"
"127221,0.570838,-0.144630,-0.210645,-0.780291,0.077881,-0.119873,1.002441,0.173638,-0.066046,-4.401672,0.000000,0.000000,0.000000"
"127241,0.546430,-0.136335,-0.215563,-0.797721,-0.100220,0.170898,1.002197,0.279099,0.033023,-6.260559,0.000000,0.000000,0.000000"
"127266,0.533631,-0.132166,-0.217690,-0.806462,-0.065308,0.000122,1.015259,0.132093,-0.045806,-3.229882,0.000000,0.000000,0.000000"
"127292,0.534003,-0.132350,-0.216711,-0.806449,0.007324,-0.105469,0.998291,-0.015979,-0.009587,0.160855,-45.000000,-7.000000,48.000000"
"127317,0.533646,-0.131409,-0.216018,-0.807025,-0.040894,-0.035278,0.985718,0.033023,0.067112,-0.143811,0.000000,0.000000,0.000000"
"127342,0.533157,-0.131248,-0.215566,-0.807496,-0.016724,0.031372,1.022583,-0.023436,-0.099070,-0.118244,0.000000,0.000000,0.000000"
"127367,0.533520,-0.130870,-0.214839,-0.807511,-0.036743,0.016602,1.000977,-0.001065,-0.009587,0.064981,0.000000,0.000000,0.000000"
"127387,0.533731,-0.130456,-0.214079,-0.807640,-0.028076,-0.013184,0.999634,-0.003196,0.000000,0.022371,0.000000,0.000000,0.000000"
"127413,0.533425,-0.130269,-0.213269,-0.808087,-0.029907,0.001343,1.001831,-0.003196,0.001065,-0.004261,-44.000000,-5.000000,48.000000"
"127439,0.534145,-0.129777,-0.212420,-0.807914,-0.017212,-0.047485,0.986816,0.026632,0.040480,0.129962,0.000000,0.000000,0.000000"
"127463,0.548197,-0.132596,-0.209601,-0.798727,0.082764,-0.191895,1.011719,0.124636,0.079895,3.409911,0.000000,0.000000,0.000000"
"127488,0.569776,-0.138135,-0.203912,-0.784024,0.022461,0.480835,0.964844,-0.416518,0.102265,5.520200,0.000000,0.000000,0.000000"
"127510,0.578061,-0.140658,-0.200589,-0.778348,-0.107788,-0.171997,0.963989,-0.208792,0.049002,2.188053,-37.000000,-12.000000,46.000000"
"127535,0.585160,-0.141721,-0.198112,-0.773469,0.006714,-0.046753,0.995361,-0.042611,0.104396,1.772600,0.000000,0.000000,0.000000"
"127555,0.591211,-0.142113,-0.195620,-0.769419,-0.122803,-0.044922,0.982178,-0.044741,0.186421,1.494566,0.000000,0.000000,0.000000"
"127577,0.592724,-0.142026,-0.194537,-0.768545,-0.044800,-0.000610,1.051392,-0.031958,0.003196,0.365386,0.000000,0.000000,0.000000"
"127603,0.592051,-0.144097,-0.192872,-0.769098,-0.035400,0.076538,1.032349,-0.433563,-0.256729,0.038350,-36.000000,-18.000000,44.000000"
"127628,0.589932,-0.145191,-0.192317,-0.770658,-0.056274,0.096069,1.023193,-0.320645,-0.317449,-0.434628,0.000000,0.000000,0.000000"
"127653,0.587504,-0.145121,-0.193891,-0.772130,-0.153564,0.016479,1.190186,0.158724,-0.400539,-0.589091,0.000000,0.000000,0.000000"
"127678,0.584959,-0.146407,-0.200313,-0.772180,-0.190796,0.091431,1.317139,0.785100,-1.227185,-0.519849,0.000000,0.000000,0.000000"
"127704,0.583301,-0.149403,-0.200172,-0.772897,-0.133057,0.030518,1.245361,-0.340885,-0.622114,-0.137419,-39.000000,-13.000000,43.000000"
"127729,0.584479,-0.152414,-0.199731,-0.771532,-0.039551,0.026367,1.090820,-0.289752,-0.580569,0.480434,0.000000,0.000000,0.000000"
"127750,0.582789,-0.152387,-0.202627,-0.772060,-0.218994,-0.007202,1.173462,0.414388,-0.558199,-0.405866,0.000000,0.000000,0.000000"
"127770,0.579027,-0.153309,-0.207253,-0.773479,-0.326050,-0.030396,1.262451,0.472977,-0.961934,-0.843689,0.000000,0.000000,0.000000"
"127800,0.570099,-0.154794,-0.211127,-0.778750,-0.177368,0.151978,1.207520,0.023436,-1.023719,-1.956891,-41.000000,-12.000000,44.000000"
"127826,0.573890,-0.158227,-0.213355,-0.774658,-0.009766,0.107300,1.123657,0.270577,-0.928910,1.149420,0.000000,0.000000,0.000000"
"127855,0.580281,-0.161102,-0.215847,-0.768590,-0.207886,-0.020508,1.222778,0.560329,-0.819188,1.734250,0.000000,0.000000,0.000000"
"127880,0.581231,-0.163246,-0.214617,-0.767764,-0.379150,0.000000,1.279541,-0.338754,-0.341950,0.383495,0.000000,0.000000,0.000000"
"127906,0.579314,-0.164019,-0.208726,-0.770666,-0.295288,0.050659,1.261963,-1.089765,0.426106,-0.332363,-34.000000,6.000000,39.000000"
"127931,0.579274,-0.159807,-0.200158,-0.773847,-0.264648,0.142822,1.209106,-0.958738,1.570200,-0.247141,0.000000,0.000000,0.000000"
"127956,0.580195,-0.154701,-0.191107,-0.776479,-0.153442,0.071045,1.152222,-0.863929,1.784318,-0.063916,0.000000,0.000000,0.000000"
"127976,0.582606,-0.151966,-0.186827,-0.776255,-0.210693,0.059937,1.288574,-0.241815,0.829841,0.439954,0.000000,0.000000,0.000000"
"128005,0.585002,-0.153274,-0.185071,-0.774615,-0.215088,0.086426,1.294312,-0.196009,-0.108657,0.733967,-32.000000,-4.000000,44.000000"
"128031,0.587807,-0.156402,-0.185057,-0.771865,-0.226196,0.001465,1.056396,-0.151268,-0.639159,0.878843,0.000000,0.000000,0.000000"
"128051,0.591249,-0.158090,-0.183234,-0.769323,-0.234375,-0.060669,0.915405,-0.237554,-0.171508,0.948085,0.000000,0.000000,0.000000"
"128076,0.594110,-0.160108,-0.179525,-0.767574,-0.237061,-0.078369,0.859741,-0.611462,0.005326,0.834102,0.000000,0.000000,0.000000"
"128102,0.595086,-0.165371,-0.175889,-0.766543,-0.285889,0.026367,0.820435,-1.031176,-0.531567,0.630637,-29.000000,-6.000000,44.000000"
"128130,0.595691,-0.169890,-0.173453,-0.765639,-0.293701,0.014648,0.670654,-0.847950,-0.588026,0.448476,0.000000,0.000000,0.000000"
"128155,0.595705,-0.173185,-0.171692,-0.765287,-0.291138,0.045654,0.610229,-0.649811,-0.482565,0.231162,0.000000,0.000000,0.000000"
"128175,0.595681,-0.172534,-0.171882,-0.765410,-0.320923,0.062500,0.643555,0.095874,-0.095874,-0.033023,0.000000,0.000000,0.000000"
"128201,0.596038,-0.170569,-0.174168,-0.765056,-0.353638,0.052979,0.739136,0.678573,-0.131028,0.003196,-29.000000,-12.000000,42.000000"
"128226,0.596910,-0.167689,-0.176676,-0.764437,-0.373169,-0.024292,0.745239,0.795752,-0.024501,0.024501,0.000000,0.000000,0.000000"
"128251,0.594976,-0.165639,-0.173684,-0.767073,-0.347290,-0.072266,0.729492,-0.339819,0.516653,-0.584830,0.000000,0.000000,0.000000"
"128276,0.592101,-0.162763,-0.170653,-0.770586,-0.287842,-0.014282,0.781982,-0.320645,0.641289,-0.854342,0.000000,0.000000,0.000000"
"128302,0.591619,-0.159612,-0.169296,-0.771913,-0.224854,0.102173,0.909912,0.172573,0.506001,-0.230097,-30.000000,2.000000,46.000000"
"128327,0.592881,-0.156695,-0.171045,-0.771156,-0.278198,0.025513,0.892090,0.692422,0.083091,0.138484,0.000000,0.000000,0.000000"
"128347,0.592323,-0.154035,-0.170382,-0.772267,-0.247437,-0.089478,0.834473,0.200270,0.330232,-0.294013,0.000000,0.000000,0.000000"
"128373,0.589445,-0.153196,-0.167153,-0.775335,-0.211792,-0.088257,0.823486,-0.546481,0.334493,-0.743555,0.000000,0.000000,0.000000"
"128398,0.585890,-0.151647,-0.166198,-0.778534,-0.190063,-0.000122,0.780884,-0.088417,0.173638,-0.894822,-29.000000,-2.000000,42.000000"
"128423,0.583167,-0.148890,-0.165114,-0.781335,-0.172119,0.015869,0.792847,-0.003196,0.370712,-0.803209,0.000000,0.000000,0.000000"
"128448,0.580647,-0.145229,-0.164716,-0.783981,-0.153809,0.165894,0.876953,0.175769,0.434628,-0.781904,0.000000,0.000000,0.000000"
"128469,0.578947,-0.141544,-0.164968,-0.785857,-0.117310,0.112549,0.853394,0.346211,0.365386,-0.590156,0.000000,0.000000,0.000000"
"128489,0.577815,-0.137675,-0.165495,-0.787265,-0.098877,-0.011230,0.799927,0.488956,0.370712,-0.481499,0.000000,0.000000,0.000000"
"128516,0.576223,-0.133541,-0.165742,-0.789090,-0.070435,-0.072876,0.788330,0.542220,0.491087,-0.553937,-32.000000,-13.000000,45.000000"
"128544,0.574385,-0.128927,-0.165212,-0.791306,-0.066650,-0.017700,0.887451,0.372843,0.610397,-0.683900,0.000000,0.000000,0.000000"
"128569,0.572203,-0.125632,-0.164241,-0.793615,-0.044922,0.097534,0.921509,0.099070,0.436758,-0.674312,0.000000,0.000000,0.000000"
"128590,0.569951,-0.122100,-0.163049,-0.796029,-0.011353,0.092773,0.918823,0.090547,0.499609,-0.700944,0.000000,0.000000,0.000000"
"128616,0.565768,-0.119780,-0.160257,-0.799923,-0.012085,0.048096,1.003296,-0.284426,0.527306,-1.040763,-30.000000,-17.000000,40.000000"
"128641,0.562678,-0.117422,-0.158888,-0.802721,-0.040039,0.083374,1.069336,-0.093743,0.316384,-0.838363,0.000000,0.000000,0.000000"
"128670,0.559812,-0.115322,-0.158517,-0.805099,0.025513,0.051270,0.939941,0.072438,0.161920,-0.776578,0.000000,0.000000,0.000000"
"128690,0.557204,-0.112960,-0.156971,-0.807542,0.045166,0.095703,0.905029,-0.105461,0.341950,-0.713727,0.000000,0.000000,0.000000"
"128718,0.553246,-0.111130,-0.155486,-0.810797,0.055542,0.139893,0.922485,-0.111853,0.297209,-0.916127,-35.000000,-14.000000,41.000000"
"128738,0.548325,-0.109615,-0.153505,-0.814715,0.058105,0.079224,0.948853,-0.352602,0.215183,-1.220793,0.000000,0.000000,0.000000"
"128763,0.542913,-0.108166,-0.152656,-0.818683,0.048584,0.097412,1.034668,-0.193878,0.064981,-1.326254,0.000000,0.000000,0.000000"
"128793,0.536867,-0.107268,-0.156194,-0.822114,0.054565,0.053589,1.001099,0.573112,-0.467651,-1.376322,-36.000000,0.000000,44.000000"
"128818,0.531581,-0.106947,-0.157123,-0.825407,0.095337,0.074341,0.941650,0.020240,-0.321710,-1.243164,0.000000,0.000000,0.000000"
"128843,0.525922,-0.107740,-0.159502,-0.828467,0.030640,0.025635,1.021484,0.158724,-0.670051,-1.282578,0.000000,0.000000,0.000000"
"128868,0.521326,-0.108372,-0.162752,-0.830654,0.075439,0.044067,0.971924,0.371777,-0.719053,-1.038633,0.000000,0.000000,0.000000"
"128889,0.517005,-0.109421,-0.167922,-0.832187,0.027344,0.052979,0.946899,0.663660,-0.997087,-0.947020,0.000000,0.000000,0.000000"
"128915,0.511734,-0.110714,-0.176514,-0.833495,0.028931,0.107788,0.942627,1.257012,-1.374191,-1.053546,-39.000000,3.000000,43.000000"
"128941,0.506634,-0.109525,-0.189358,-0.833948,0.062500,0.108276,0.932617,2.177400,-1.464738,-1.204814,0.000000,0.000000,0.000000"
"128963,0.498356,-0.111479,-0.195178,-0.837328,-0.026489,-0.180664,0.982910,0.586961,-1.287905,-1.797101,0.000000,0.000000,0.000000"
"128988,0.492270,-0.116005,-0.199510,-0.839291,-0.064575,-0.115967,1.040771,0.168312,-1.529720,-1.144094,0.000000,0.000000,0.000000"
"129014,0.491813,-0.119957,-0.202044,-0.838397,-0.036621,-0.200195,1.034790,0.220510,-1.062069,0.159790,-41.000000,18.000000,39.000000"
"129039,0.489448,-0.121150,-0.202635,-0.839466,-0.111328,-0.204590,1.194458,-0.008522,-0.469782,-0.481499,0.000000,0.000000,0.000000"
"129064,0.483984,-0.118151,-0.201411,-0.843346,-0.131470,-0.249146,1.197144,-0.088417,0.356864,-1.405084,0.000000,0.000000,0.000000"
"129090,0.476157,-0.116388,-0.195337,-0.849454,-0.018188,-0.253174,1.112549,-1.154747,0.590156,-1.864213,0.000000,0.000000,0.000000"
"129116,0.468149,-0.115551,-0.190270,-0.855150,-0.002930,-0.070923,1.192017,-1.041829,0.327036,-1.753425,-40.000000,17.000000,41.000000"
"129141,0.465738,-0.114873,-0.190970,-0.856401,0.053223,-0.073608,1.120483,0.196009,-0.152333,-0.585895,0.000000,0.000000,0.000000"
"129161,0.464384,-0.114647,-0.192670,-0.856786,0.130005,-0.016968,1.012329,0.388821,-0.297209,-0.333428,0.000000,0.000000,0.000000"
"129186,0.462797,-0.114448,-0.193982,-0.857375,0.190552,-0.010010,0.912720,0.325971,-0.249272,-0.395213,0.000000,0.000000,0.000000"
"129212,0.459872,-0.114289,-0.192983,-0.859194,0.268677,0.032837,0.804932,-0.129962,0.007457,-0.585895,-39.000000,22.000000,40.000000"
"129237,0.456870,-0.113971,-0.191613,-0.861141,0.239746,0.091919,0.849365,-0.216249,-0.014914,-0.699879,0.000000,0.000000,0.000000"
"129262,0.457364,-0.114127,-0.193549,-0.860425,0.225220,0.138306,0.901733,0.451672,-0.357929,0.112918,0.000000,0.000000,0.000000"
"129291,0.457494,-0.114552,-0.195449,-0.859870,0.229614,0.147827,0.949097,0.402670,-0.413323,0.049002,0.000000,0.000000,0.000000"
"129321,0.454193,-0.115987,-0.192831,-0.862016,0.234253,0.136719,0.957031,-0.606135,-0.164051,-0.555003,-41.000000,24.000000,42.000000"
"129345,0.448444,-0.117078,-0.188342,-0.865862,0.146240,0.079590,0.921265,-1.055677,-0.066046,-1.196292,0.000000,0.000000,0.000000"
"129374,0.442791,-0.119134,-0.184662,-0.869278,0.228394,0.041382,0.863892,-0.936367,-0.268447,-1.154747,0.000000,0.000000,0.000000"
"129404,0.441901,-0.120403,-0.180832,-0.870360,0.160522,0.145874,0.997192,-0.708401,0.001065,-0.021305,-35.000000,18.000000,44.000000"
"129433,0.447618,-0.120533,-0.176279,-0.868352,0.215210,0.199097,0.939209,-0.575243,0.355798,1.320928,0.000000,0.000000,0.000000"
"129462,0.451816,-0.119796,-0.166485,-0.868213,0.165283,0.104370,0.900513,-1.450890,0.982174,0.956607,0.000000,0.000000,0.000000"
"129489,0.455649,-0.117958,-0.158399,-0.867974,0.033325,0.032959,0.960449,-1.061003,1.003479,0.822384,0.000000,0.000000,0.000000"
"129515,0.459825,-0.116774,-0.154508,-0.866633,0.033813,-0.054565,0.884521,-0.275903,0.540089,0.953412,-33.000000,13.000000,47.000000"
"129539,0.465010,-0.114197,-0.152348,-0.864589,0.066162,-0.118652,0.791260,0.185356,0.633832,1.026915,0.000000,0.000000,0.000000"
"129565,0.470884,-0.109661,-0.150624,-0.862296,0.130371,-0.089355,0.820801,0.477238,0.959803,1.094026,0.000000,0.000000,0.000000"
"129589,0.477868,-0.101688,-0.149311,-0.859656,0.128052,-0.019653,0.908325,0.880974,1.510545,1.220793,0.000000,0.000000,0.000000"
"129611,0.486225,-0.092833,-0.147167,-0.856335,0.021851,-0.023071,1.070190,0.899083,1.804558,1.608549,-37.000000,-3.000000,46.000000"
"129637,0.499544,-0.082569,-0.143795,-0.850271,-0.024292,0.012817,1.209351,0.926780,2.194445,2.634399,0.000000,0.000000,0.000000"
"129662,0.514543,-0.069968,-0.137552,-0.843463,0.146851,0.019897,1.125000,0.768056,2.944391,2.957174,0.000000,0.000000,0.000000"
"129689,0.525726,-0.059242,-0.126494,-0.839108,0.260376,-0.063232,1.062256,-0.296144,3.171292,2.146508,0.000000,0.000000,0.000000"
"129715,0.535012,-0.048661,-0.115849,-0.835448,0.288208,-0.145386,1.114868,-0.285491,3.073288,1.874865,-37.000000,-10.000000,40.000000"
"129735,0.543370,-0.037620,-0.114814,-0.830753,0.236694,-0.205933,1.297485,1.391235,2.084722,1.614941,0.000000,0.000000,0.000000"
"129760,0.554559,-0.025851,-0.120906,-0.822908,0.237915,-0.167725,1.327881,2.749448,1.481783,2.359561,0.000000,0.000000,0.000000"
"129785,0.566980,-0.013385,-0.126803,-0.813803,0.318115,-0.251221,1.252808,2.828277,1.687379,2.681271,0.000000,0.000000,0.000000"
"129811,0.580093,-0.000865,-0.119889,-0.805679,0.373657,-0.234009,1.322632,0.714792,3.155313,2.839995,-35.000000,-15.000000,28.000000"
"129836,0.597213,0.017752,-0.116628,-0.793360,0.484985,-0.165405,1.366577,2.095375,3.894607,3.698598,0.000000,0.000000,0.000000"
"129861,0.608029,0.028451,-0.118487,-0.784508,0.622559,-0.166626,1.255493,1.871669,1.903627,2.485262,0.000000,0.000000,0.000000"
"129881,0.617693,0.036251,-0.120529,-0.776282,0.583984,-0.391602,1.062134,1.563808,1.367800,2.300971,0.000000,0.000000,0.000000"
"129909,0.625589,0.043368,-0.121581,-0.769400,0.584351,-0.363770,0.984131,1.300688,1.303884,1.953695,-30.000000,-36.000000,25.000000"
"129929,0.632364,0.050247,-0.122823,-0.763220,0.535767,-0.367920,1.000610,1.299623,1.234641,1.617071,0.000000,0.000000,0.000000"
"129954,0.639101,0.056739,-0.126270,-0.756562,0.470093,-0.318359,1.226807,1.609614,0.884169,1.706553,0.000000,0.000000,0.000000"
"129975,0.646876,0.061527,-0.135540,-0.747927,0.564209,-0.132568,1.363159,2.287123,-0.037284,2.217880,0.000000,0.000000,0.000000"
"130001,0.654578,0.063933,-0.144331,-0.739330,0.603027,-0.243408,1.315796,1.907888,-0.380299,2.352104,-23.000000,-26.000000,19.000000"
"130025,0.661421,0.060009,-0.150194,-0.732368,0.540894,-0.290161,1.358887,0.631702,-0.967260,2.065548,0.000000,0.000000,0.000000"
"130050,0.668220,0.053064,-0.156362,-0.725408,0.537964,-0.218628,1.362427,0.275903,-1.449825,2.149704,0.000000,0.000000,0.000000"
"130070,0.676483,0.042070,-0.163645,-0.716813,0.455688,-0.132568,1.276367,-0.063916,-2.131594,2.717489,0.000000,0.000000,0.000000"
"130100,0.684373,0.030781,-0.169764,-0.708425,0.373047,-0.135986,1.225708,-0.303600,-2.087918,2.699380,-14.000000,-35.000000,26.000000"
"130120,0.689459,0.019654,-0.176818,-0.702136,0.308716,-0.159424,1.129150,-0.155529,-2.299906,1.955825,0.000000,0.000000,0.000000"
"130145,0.693735,0.008408,-0.182437,-0.696691,0.190918,-0.179565,1.080200,-0.399474,-2.202967,1.734250,0.000000,0.000000,0.000000"
"130170,0.698827,-0.002175,-0.187800,-0.690194,0.143921,-0.072998,1.141479,-0.317449,-2.087918,1.979261,0.000000,0.000000,0.000000"
"130196,0.701920,-0.011000,-0.197214,-0.684320,0.046021,-0.034546,1.161377,0.420779,-2.472479,1.581918,-8.000000,-31.000000,31.000000"
"130221,0.704438,-0.017939,-0.205669,-0.679077,-0.088745,-0.061523,1.252319,0.514523,-2.190184,1.336907,0.000000,0.000000,0.000000"
"130246,0.704213,-0.028603,-0.216119,-0.675691,0.040039,-0.210693,1.220703,0.206661,-3.045591,0.824515,0.000000,0.000000,0.000000"
"130266,0.700036,-0.044643,-0.225769,-0.676007,-0.104126,-0.287964,1.210815,-0.857538,-3.826430,0.011718,0.000000,0.000000,0.000000"
"130291,0.695194,-0.060286,-0.238246,-0.675507,-0.111694,-0.107178,1.079834,-0.419714,-4.231230,0.006392,0.000000,0.000000,0.000000"
"130317,0.691175,-0.074437,-0.250058,-0.673949,-0.250366,0.061890,0.974609,-0.239684,-3.891411,0.224771,-7.000000,-12.000000,40.000000"
"130342,0.687030,-0.084675,-0.263193,-0.671974,-0.289063,0.186768,0.815796,0.400539,-3.604855,0.073503,0.000000,0.000000,0.000000"
"130367,0.684753,-0.091683,-0.277855,-0.667461,-0.404663,0.021973,0.724365,1.243164,-3.317233,0.460194,0.000000,0.000000,0.000000"
"130388,0.682841,-0.097009,-0.292810,-0.662253,-0.488281,-0.130615,0.665894,1.577657,-3.114833,0.491087,0.000000,0.000000,0.000000"
"130414,0.680157,-0.102516,-0.306274,-0.658083,-0.572754,-0.145142,0.386841,1.308145,-2.939064,0.297209,-10.000000,1.000000,49.000000"
"130440,0.676954,-0.104499,-0.315784,-0.656577,-0.719727,-0.107788,0.302246,1.040763,-1.927063,-0.264186,0.000000,0.000000,0.000000"
"130464,0.673502,-0.106235,-0.318156,-0.658700,-0.627075,-0.187378,0.614136,-0.075634,-0.866060,-0.668986,0.000000,0.000000,0.000000"
"130489,0.668543,-0.109617,-0.319726,-0.662427,-0.614624,-0.101929,0.485474,-0.549676,-1.038633,-0.951281,0.000000,0.000000,0.000000"
"130511,0.667537,-0.110762,-0.317287,-0.664421,-0.599854,0.035522,0.258545,-0.566721,0.018109,-0.222640,-11.000000,7.000000,45.000000"
"130536,0.667066,-0.114667,-0.308940,-0.668155,-0.619873,-0.056763,0.466431,-1.842907,0.500674,-0.101200,0.000000,0.000000,0.000000"
"130561,0.663756,-0.122196,-0.296545,-0.675690,-0.557983,0.089111,0.469727,-3.189401,0.462325,-0.655138,0.000000,0.000000,0.000000"
"130590,0.660068,-0.124794,-0.289899,-0.681685,-0.493896,0.306030,0.515259,-1.715076,0.304666,-0.911866,0.000000,0.000000,0.000000"
"130616,0.656169,-0.121412,-0.289889,-0.686051,-0.542114,0.150391,0.518311,0.145941,0.197074,-1.261273,-5.000000,2.000000,48.000000"
"130641,0.652629,-0.112772,-0.290866,-0.690474,-0.513794,0.221924,0.470703,0.909736,0.802144,-1.532915,0.000000,0.000000,0.000000"
"130661,0.648600,-0.101520,-0.286428,-0.697833,-0.498779,0.152832,0.501343,0.337689,1.904693,-2.020807,0.000000,0.000000,0.000000"
"130690,0.644498,-0.096803,-0.280364,-0.704732,-0.381470,0.213379,0.712891,-0.708401,1.185639,-1.562743,0.000000,0.000000,0.000000"
"130720,0.640239,-0.092067,-0.276354,-0.710807,-0.370605,0.284180,0.722900,-0.320645,0.911866,-1.511610,-8.000000,3.000000,43.000000"
"130749,0.632978,-0.083118,-0.263415,-0.723216,-0.236084,0.277588,0.713379,-1.523328,2.588593,-2.815494,0.000000,0.000000,0.000000"
"130777,0.625666,-0.081101,-0.257576,-0.731860,-0.086670,0.354126,1.007446,-1.172856,0.617853,-2.100701,0.000000,0.000000,0.000000"
"130803,0.618175,-0.075209,-0.256014,-0.739365,-0.181396,0.517456,0.557251,0.026632,0.666856,-2.225337,-8.000000,-20.000000,48.000000"
"130832,0.615824,-0.064253,-0.246203,-0.745665,-0.193115,0.533813,0.378662,-0.578439,2.690858,-1.439172,0.000000,0.000000,0.000000"
"130852,0.613877,-0.059577,-0.232509,-0.752027,-0.155640,0.386597,0.475098,-1.895105,2.222142,-1.037567,0.000000,0.000000,0.000000"
"130874,0.611662,-0.057844,-0.218605,-0.758113,-0.146851,0.398071,0.424316,-2.298841,1.800297,-0.905475,0.000000,0.000000,0.000000"
"130899,0.608340,-0.056072,-0.195445,-0.767189,-0.078003,0.343628,0.110474,-3.805124,2.994458,-1.324124,-1.000000,-28.000000,29.000000"
"130924,0.602072,-0.055681,-0.165716,-0.779068,0.068359,0.360718,0.148437,-5.237905,3.577158,-2.027198,0.000000,0.000000,0.000000"
"130950,0.594958,-0.045929,-0.146468,-0.788963,0.197021,0.457764,0.082153,-2.410693,3.782754,-2.370213,0.000000,0.000000,0.000000"
"130975,0.587297,-0.034743,-0.126333,-0.798696,0.384766,0.396484,0.167236,-2.343582,4.159857,-2.499110,0.000000,0.000000,0.000000"
"131001,0.577546,-0.021909,-0.112356,-0.808293,0.767456,0.507080,0.571289,-1.083374,3.658118,-2.863431,-7.000000,-35.000000,12.000000"
"131027,0.567207,-0.008319,-0.108431,-0.816364,0.788452,0.629150,0.628662,0.589091,2.608833,-2.897519,0.000000,0.000000,0.000000"
"131048,0.556737,0.007661,-0.109192,-0.823446,0.835937,0.610596,0.540039,1.656486,2.470348,-2.874083,0.000000,0.000000,0.000000"
"131068,0.546382,0.016401,-0.107384,-0.830462,0.856201,0.504150,0.506104,0.449542,1.578722,-2.704706,0.000000,0.000000,0.000000"
"131093,0.537267,0.015077,-0.100701,-0.837243,0.858643,0.383789,0.412476,-1.438107,0.476173,-2.279666,0.000000,0.000000,0.000000"
"131116,0.529004,0.012887,-0.100212,-0.842583,0.892578,0.520630,0.369873,-0.452737,-0.323840,-1.861017,-16.000000,-31.000000,12.000000"
"131141,0.521640,0.010089,-0.101018,-0.847104,0.765137,0.451538,0.207275,-0.327036,-0.544350,-1.685248,0.000000,0.000000,0.000000"
"131166,0.515544,0.007608,-0.099228,-0.851064,0.618408,0.386353,-0.003662,-0.733967,-0.198139,-1.421063,0.000000,0.000000,0.000000"
"131191,0.508126,0.006984,-0.099979,-0.855431,0.597534,0.241577,-0.014893,-0.086286,-0.155529,-1.725728,0.000000,0.000000,0.000000"
"131217,0.498731,0.006270,-0.098651,-0.861102,0.693237,0.192505,0.129517,-0.411192,0.005326,-2.118811,-22.000000,-31.000000,14.000000"
"131242,0.489181,0.003828,-0.096946,-0.866769,0.867187,0.408081,0.293701,-0.713727,-0.265251,-2.190184,0.000000,0.000000,0.000000"
"131262,0.481245,-0.002166,-0.096877,-0.871214,0.944214,0.465454,0.474854,-0.755272,-1.008805,-1.719337,0.000000,0.000000,0.000000"
"131287,0.475031,-0.008386,-0.096729,-0.874596,0.968506,0.336304,0.343628,-0.748881,-1.000283,-1.314536,0.000000,0.000000,0.000000"
"131313,0.470475,-0.015414,-0.095547,-0.877090,1.095215,0.299072,0.584839,-0.931041,-1.016262,-0.822384,-28.000000,-31.000000,14.000000"
"131338,0.466879,-0.025506,-0.105255,-0.877665,1.124512,0.356445,0.974487,0.692422,-2.558765,-0.547546,0.000000,0.000000,0.000000"
"131363,0.460783,-0.039360,-0.120663,-0.878391,1.054321,0.372070,0.761841,1.315602,-3.807255,-0.949151,0.000000,0.000000,0.000000"
"131388,0.453116,-0.052661,-0.135881,-0.879459,1.041260,0.402466,0.835937,1.309210,-3.730556,-1.268730,0.000000,0.000000,0.000000"
"131410,0.445185,-0.065923,-0.157195,-0.879064,1.060425,0.312256,1.194580,2.561961,-4.331365,-1.134507,-34.000000,-19.000000,31.000000"
"131436,0.440275,-0.082399,-0.180711,-0.875621,0.893066,0.107300,0.860962,2.738795,-5.005678,-0.399474,0.000000,0.000000,0.000000"
"131456,0.438246,-0.098489,-0.197267,-0.871393,0.836548,0.077637,1.111450,1.679922,-4.252535,0.255663,0.000000,0.000000,0.000000"
"131479,0.436716,-0.116836,-0.212723,-0.866243,0.919067,0.088989,1.758911,1.413606,-4.622182,0.518784,0.000000,0.000000,0.000000"
"131505,0.433981,-0.137314,-0.227824,-0.860756,0.790039,0.004761,1.484985,1.172856,-5.062137,0.605070,-43.000000,-15.000000,38.000000"
"131530,0.429107,-0.154850,-0.239129,-0.857150,0.300903,-0.526733,1.143921,0.618919,-4.371845,-0.104396,0.000000,0.000000,0.000000"
"131555,0.420016,-0.172290,-0.247174,-0.856042,0.349609,-0.210327,1.571777,-0.207727,-4.249340,-0.922519,0.000000,0.000000,0.000000"
"131580,0.412633,-0.186737,-0.254516,-0.854450,0.168213,0.000732,1.182739,-0.033023,-3.646400,-0.682835,0.000000,0.000000,0.000000"
"131610,0.408623,-0.197774,-0.262278,-0.851542,-0.024536,-0.008179,1.295288,0.552872,-2.958239,-0.106526,-42.000000,7.000000,42.000000"
"131630,0.401951,-0.206762,-0.274000,-0.848887,-0.082764,-0.203369,1.507935,1.226119,-3.078614,-0.924649,0.000000,0.000000,0.000000"
"131655,0.393791,-0.214126,-0.285367,-0.847139,-0.114502,-0.254639,1.382202,1.186705,-2.813363,-1.327320,0.000000,0.000000,0.000000"
"131680,0.385454,-0.221621,-0.294793,-0.845817,-0.105713,-0.264648,1.441162,0.814927,-2.671683,-1.300688,0.000000,0.000000,0.000000"
"131706,0.376647,-0.226943,-0.304224,-0.845034,-0.258301,-0.419067,1.253784,0.984304,-2.292449,-1.509480,-45.000000,11.000000,37.000000"
"131731,0.366349,-0.228885,-0.309569,-0.847093,-0.224243,-0.361572,1.136841,0.254598,-1.382713,-2.038916,0.000000,0.000000,0.000000"
"131756,0.360794,-0.220070,-0.309910,-0.851677,-0.250610,-0.215088,1.012451,0.246076,1.208010,-1.843973,0.000000,0.000000,0.000000"
"131776,0.355306,-0.211837,-0.310632,-0.855798,-0.122681,-0.354858,1.179321,0.318514,1.076982,-1.797101,0.000000,0.000000,0.000000"
"131802,0.348074,-0.208649,-0.309712,-0.859877,-0.058838,-0.158691,1.291016,-0.347276,0.215183,-1.662878,-42.000000,26.000000,40.000000"
"131828,0.342520,-0.211084,-0.304827,-0.863252,0.141235,-0.122437,1.218628,-1.343298,-0.395213,-0.858603,0.000000,0.000000,0.000000"
"131853,0.335185,-0.211613,-0.298439,-0.868220,-0.127197,0.009155,0.900879,-1.675661,-0.026632,-1.292166,0.000000,0.000000,0.000000"
"131878,0.328856,-0.206758,-0.291338,-0.874201,-0.225708,0.075439,0.749512,-1.476456,1.050351,-1.457282,0.000000,0.000000,0.000000"
"131904,0.327482,-0.189865,-0.282771,-0.881332,-0.056396,-0.083496,0.763184,-0.713727,3.615507,-1.307079,-36.000000,15.000000,38.000000"
"131929,0.326942,-0.180214,-0.272211,-0.886867,0.221069,0.067993,1.038208,-1.451955,2.450108,-0.617853,0.000000,0.000000,0.000000"
"131950,0.327426,-0.176174,-0.262558,-0.890404,-0.127563,0.229614,0.690918,-1.596831,1.341168,0.040480,0.000000,0.000000,0.000000"
"131970,0.329357,-0.168937,-0.249586,-0.894813,-0.132324,0.183716,0.627808,-1.969674,2.232794,0.185356,0.000000,0.000000,0.000000"
"131995,0.334660,-0.160167,-0.232945,-0.898936,-0.099976,0.239624,0.604004,-2.423476,2.902845,0.868190,0.000000,0.000000,0.000000"
"132020,0.344170,-0.150436,-0.216513,-0.901132,-0.123413,0.409790,0.443237,-2.106028,3.238404,1.790709,-29.000000,0.000000,47.000000"
"132049,0.355669,-0.133213,-0.199832,-0.903228,0.017212,0.552246,0.361572,-1.728924,4.755341,1.784318,0.000000,0.000000,0.000000"
"132074,0.362963,-0.111584,-0.181784,-0.907062,0.007324,0.282471,0.261963,-1.838646,5.505287,0.754207,0.000000,0.000000,0.000000"
"132104,0.366521,-0.084555,-0.168739,-0.911065,0.494629,0.493286,0.359863,-0.486826,6.243514,-0.235423,-21.000000,-26.000000,44.000000"
"132129,0.376079,-0.058461,-0.159432,-0.910894,0.967651,0.773682,0.663452,0.268447,5.910087,1.026915,0.000000,0.000000,0.000000"
"132155,0.387738,-0.034159,-0.151644,-0.908569,0.875122,0.641479,0.589966,0.514523,5.520200,1.600027,0.000000,0.000000,0.000000"
"132175,0.398113,-0.012957,-0.141220,-0.906308,0.718506,0.430908,0.474365,-0.194943,5.135640,1.460477,0.000000,0.000000,0.000000"
"132198,0.404840,0.007789,-0.131146,-0.904900,0.712280,0.263428,0.397705,-0.090547,4.939631,0.821319,-20.000000,-25.000000,23.000000"
"132223,0.407918,0.027984,-0.124050,-0.904119,0.742920,0.234497,0.375610,0.329167,4.502873,0.035154,0.000000,0.000000,0.000000"
"132248,0.408938,0.048063,-0.120897,-0.903241,0.748779,0.314453,0.264648,1.022654,4.103398,-0.303600,0.000000,0.000000,0.000000"
"132273,0.415531,0.068214,-0.116511,-0.899503,0.807129,0.546021,0.060669,0.776578,4.357996,0.925715,0.000000,0.000000,0.000000"
"132299,0.423628,0.088282,-0.111231,-0.894636,0.904053,0.576782,0.070068,0.625310,4.468784,1.358212,-17.000000,-32.000000,7.000000"
"132324,0.429449,0.105153,-0.109160,-0.890281,1.023315,0.259766,0.426514,1.027980,3.591006,0.942759,0.000000,0.000000,0.000000"
"132349,0.429041,0.116473,-0.111592,-0.888766,0.783447,0.230957,0.108032,1.400823,2.014415,-0.198139,0.000000,0.000000,0.000000"
"132369,0.427746,0.127481,-0.114030,-0.887569,0.695068,0.378662,-0.087280,1.337972,1.910019,-0.379234,0.000000,0.000000,0.000000"
"132394,0.427120,0.138316,-0.115326,-0.886079,0.739990,0.520874,-0.072876,1.094026,1.987783,-0.263120,0.000000,0.000000,0.000000"
"132420,0.425325,0.147966,-0.118380,-0.884981,0.782349,0.494873,0.032959,1.320928,1.586179,-0.357929,-16.000000,-38.000000,1.000000"
"132445,0.421893,0.157318,-0.123806,-0.884268,0.696899,0.394653,-0.038086,1.780057,1.293231,-0.681769,0.000000,0.000000,0.000000"
"132470,0.418662,0.165738,-0.126288,-0.883914,0.600342,0.212158,-0.124878,1.184574,1.377387,-0.749946,0.000000,0.000000,0.000000"
"132491,0.415871,0.174855,-0.128409,-0.883170,0.668579,0.341431,-0.092285,1.157942,1.545699,-0.672182,0.000000,0.000000,0.000000"
"132517,0.411988,0.186286,-0.133243,-0.881935,0.670410,0.398926,-0.033203,1.838646,1.706553,-0.724380,-19.000000,-29.000000,-8.000000"
"132543,0.408937,0.194553,-0.134780,-0.881337,0.671509,0.401733,-0.128052,0.977913,1.417867,-0.740359,0.000000,0.000000,0.000000"
"132563,0.408466,0.199488,-0.134762,-0.880454,0.741455,0.371948,0.028442,0.366451,1.051416,-0.235423,0.000000,0.000000,0.000000"
"132588,0.406521,0.204729,-0.136326,-0.879910,0.755615,0.387939,0.184692,0.733967,0.927845,-0.467651,0.000000,0.000000,0.000000"
"132614,0.404203,0.207529,-0.139389,-0.879842,0.709595,0.250122,0.200928,0.769121,0.351537,-0.384560,-20.000000,-31.000000,-12.000000"
"132639,0.401936,0.210582,-0.140388,-0.879996,0.739624,0.083740,0.157471,0.510262,0.557133,-0.535828,0.000000,0.000000,0.000000"
"132664,0.399156,0.213499,-0.139801,-0.880652,0.815308,0.119873,0.337769,0.237554,0.625310,-0.727576,0.000000,0.000000,0.000000"
"132689,0.396324,0.209279,-0.144092,-0.882251,0.778687,0.197144,0.416626,0.495348,-1.062069,-0.406931,0.000000,0.000000,0.000000"
"132715,0.391783,0.206478,-0.146732,-0.884501,0.602539,0.073975,0.312622,0.315318,-0.747816,-0.819188,-18.000000,-29.000000,-14.000000"
"132741,0.389365,0.203819,-0.143943,-0.886642,0.713013,0.091431,0.258179,-0.657268,-0.240750,-0.712662,0.000000,0.000000,0.000000"
"132761,0.385332,0.202633,-0.139539,-0.889375,0.793945,0.127808,0.330322,-0.781904,0.076699,-1.152616,0.000000,0.000000,0.000000"
"132786,0.378796,0.199707,-0.137775,-0.893112,0.980591,0.257935,0.474121,-0.384560,-0.545415,-1.521197,0.000000,0.000000,0.000000"
"132812,0.374580,0.193448,-0.138509,-0.896149,1.118774,0.398071,0.553345,-0.333428,-1.232511,-0.795752,-27.000000,-36.000000,-9.000000"
"132837,0.377378,0.185457,-0.135058,-0.897191,1.167847,0.347534,0.565674,-1.366734,-0.961934,0.430367,0.000000,0.000000,0.000000"
"132861,0.385360,0.169344,-0.131418,-0.897524,1.033691,0.142090,0.528809,-2.161421,-2.237055,1.635181,0.000000,0.000000,0.000000"
"132886,0.385546,0.155520,-0.137583,-0.899021,0.910278,0.393433,0.376099,-0.046872,-2.827212,0.410127,0.000000,0.000000,0.000000"
"132909,0.384519,0.150642,-0.147834,-0.898664,0.951050,0.582275,0.552490,1.410410,-1.516936,0.300405,-26.000000,-44.000000,-2.000000"
"132934,0.382054,0.138005,-0.164676,-0.898817,0.984009,0.541138,0.689819,2.084722,-3.467435,0.345146,0.000000,0.000000,0.000000"
"132954,0.378982,0.112600,-0.179425,-0.900833,1.019775,0.202515,0.666382,0.743555,-5.672533,0.460194,0.000000,0.000000,0.000000"
"132976,0.372547,0.070195,-0.192377,-0.905137,0.993652,0.163696,0.864624,-0.853277,-8.779909,0.251402,0.000000,0.000000,0.000000"
"133002,0.362335,0.026912,-0.198201,-0.910333,0.706909,0.405029,1.152710,-2.181661,-8.575378,-0.429302,-23.000000,-31.000000,21.000000"
"133027,0.358558,0.013587,-0.207003,-0.910166,0.635864,0.464844,1.285034,0.688161,-3.030677,-0.177899,0.000000,0.000000,0.000000"
"133052,0.351289,-0.001904,-0.219605,-0.910146,0.572021,0.050171,1.416382,1.353951,-3.920173,-0.710531,0.000000,0.000000,0.000000"
"133077,0.340728,-0.011785,-0.233736,-0.910567,0.569946,0.976562,1.127808,1.710815,-3.143595,-1.548894,0.000000,0.000000,0.000000"
"133102,0.337538,-0.014687,-0.259324,-0.904767,0.614014,0.814209,1.169556,4.624313,-2.288188,-0.158724,0.000000,0.000000,0.000000"
"133128,0.325623,-0.023782,-0.283865,-0.901568,0.542236,0.129028,0.938721,4.111920,-3.814712,-1.506284,-33.000000,-16.000000,37.000000"
"133148,0.315954,-0.035436,-0.297206,-0.900326,0.284546,-0.192139,1.164673,1.840777,-3.530286,-1.106810,0.000000,0.000000,0.000000"
"133174,0.307645,-0.045169,-0.305740,-0.899910,0.154785,-0.124756,1.319824,1.050351,-2.830407,-0.974717,0.000000,0.000000,0.000000"
"133199,0.296813,-0.056327,-0.313689,-0.900183,0.135132,-0.089966,1.467285,0.814927,-3.162770,-1.306014,-43.000000,-2.000000,38.000000"
"133224,0.286452,-0.065674,-0.326983,-0.898173,0.023560,-0.171143,1.096802,1.999501,-3.206446,-1.321993,0.000000,0.000000,0.000000"
"133249,0.275144,-0.071041,-0.338068,-0.897195,-0.087280,-0.236816,1.060059,1.741707,-2.423476,-1.773665,0.000000,0.000000,0.000000"
"133270,0.263924,-0.073775,-0.339123,-0.899943,0.023682,-0.231689,1.353638,-0.159790,-1.330515,-2.006958,0.000000,0.000000,0.000000"
"133290,0.257114,-0.081675,-0.332989,-0.903515,-0.037231,-0.282471,1.102295,-1.718271,-1.570200,-0.798948,0.000000,0.000000,0.000000"
"133317,0.252483,-0.087789,-0.330144,-0.905290,-0.071289,-0.122681,1.126343,-0.845820,-1.280448,-0.428236,-42.000000,4.000000,38.000000"
"133346,0.239448,-0.096575,-0.333835,-0.906583,-0.204834,-0.208130,1.378418,0.043676,-2.701511,-1.902562,0.000000,0.000000,0.000000"
"133374,0.221592,-0.118844,-0.343843,-0.904735,-0.191650,-0.260132,1.337402,0.660464,-5.828061,-1.852495,0.000000,0.000000,0.000000"
"133401,0.200397,-0.146993,-0.350787,-0.902875,-0.649292,-0.232788,1.447021,-0.222640,-7.000917,-1.919606,-46.000000,13.000000,34.000000"
"133426,0.181428,-0.169867,-0.358906,-0.899675,-0.773315,-0.309937,1.206421,0.312122,-5.988916,-1.897236,0.000000,0.000000,0.000000"
"133450,0.174242,-0.177809,-0.364093,-0.897474,-0.895142,-0.276855,0.971802,0.640224,-2.318015,-0.775512,0.000000,0.000000,0.000000"
"133476,0.172998,-0.182393,-0.370679,-0.894093,-0.699951,-0.288940,0.892944,1.311340,-1.367800,0.028762,0.000000,0.000000,0.000000"
"133501,0.165935,-0.192569,-0.380134,-0.889315,-0.568604,-0.292847,0.929077,1.528654,-2.943325,-0.661529,0.000000,0.000000,0.000000"
"133531,0.156195,-0.206942,-0.391278,-0.882995,-0.759033,-0.229614,0.938965,1.717206,-4.026699,-0.802144,-46.000000,26.000000,28.000000"
"133551,0.148067,-0.218217,-0.402884,-0.876437,-0.724365,-0.268433,0.827759,1.952630,-3.357713,-0.790426,0.000000,0.000000,0.000000"
"133572,0.137415,-0.230001,-0.411369,-0.871202,-0.785645,-0.169189,0.777832,1.164334,-3.500459,-1.083374,0.000000,0.000000,0.000000"
"133597,0.125009,-0.242211,-0.416552,-0.867290,-0.847412,-0.220215,0.751831,0.385626,-3.562244,-1.238903,0.000000,0.000000,0.000000"
"133623,0.112433,-0.256728,-0.422366,-0.862007,-0.992676,-0.239380,0.580200,0.536893,-4.086354,-1.056742,-44.000000,32.000000,12.000000"
"133652,0.097430,-0.267511,-0.429172,-0.857179,-0.842285,0.004272,0.176758,0.586961,-3.610181,-1.823733,0.000000,0.000000,0.000000"
"133677,0.101516,-0.274944,-0.444734,-0.846352,-1.066528,0.258911,-0.104736,3.640008,-1.873800,0.844755,0.000000,0.000000,0.000000"
"133694,0.097372,-0.284067,-0.449402,-0.841346,-1.114258,-0.385376,0.241333,0.857538,-2.347843,0.013848,0.000000,0.000000,0.000000"
"133721,0.079749,-0.298975,-0.452210,-0.836517,-1.034546,-0.181396,0.465698,-0.353668,-4.532700,-1.628789,-42.000000,34.000000,-4.000000"
"133746,0.054420,-0.327597,-0.450215,-0.828870,-0.929810,-0.166382,0.102539,-1.593635,-7.564442,-1.330515,0.000000,0.000000,0.000000"
"133771,0.023043,-0.360732,-0.445325,-0.819163,-0.742676,-0.268311,-0.268188,-2.370213,-8.925850,-1.722532,0.000000,0.000000,0.000000"
"133796,-0.007105,-0.397140,-0.436355,-0.807356,-0.609985,-0.194824,-0.355591,-2.805906,-9.461679,-0.920388,0.000000,0.000000,0.000000"
"133821,-0.036030,-0.425836,-0.430278,-0.795126,-0.575073,-0.245361,-0.787231,-2.332929,-8.139685,-1.675661,-41.000000,37.000000,-15.000000"
"133846,-0.060579,-0.428088,-0.435197,-0.789730,-0.472412,-0.269775,-1.007080,-0.952346,-2.793123,-4.135356,0.000000,0.000000,0.000000"
"133868,-0.068348,-0.421704,-0.449497,-0.784504,-0.468872,0.084351,-0.563843,1.850364,0.121440,-2.960370,0.000000,0.000000,0.000000"
"133888,-0.074665,-0.419877,-0.462689,-0.777205,-0.616333,0.038330,-0.561157,2.067678,-0.673247,-2.254100,0.000000,0.000000,0.000000"
"133914,-0.084994,-0.414837,-0.477273,-0.769998,-0.646973,0.053467,-0.574707,1.841842,-0.576308,-3.314037,-29.000000,38.000000,-23.000000"
"133936,-0.095852,-0.414429,-0.491207,-0.760116,-0.143921,0.105469,-0.539185,2.018676,-1.459412,-2.973153,0.000000,0.000000,0.000000"
"133961,-0.109074,-0.422920,-0.498640,-0.748732,-0.204468,0.106934,-0.568359,1.153681,-3.302320,-1.935585,0.000000,0.000000,0.000000"
"133986,-0.124858,-0.434244,-0.503062,-0.736730,-0.571045,0.376099,-0.681396,0.644485,-4.133226,-1.733185,0.000000,0.000000,0.000000"
"134011,-0.142309,-0.441921,-0.511273,-0.723225,-0.220581,0.383545,-0.571045,1.062069,-3.850931,-2.769687,-19.000000,25.000000,-34.000000"
"134036,-0.158942,-0.447973,-0.517584,-0.711453,-0.001221,0.359253,-0.472412,0.663660,-3.356648,-2.618420,0.000000,0.000000,0.000000"
"134061,-0.178450,-0.465503,-0.519200,-0.694186,-0.067261,0.473022,-0.643555,0.671117,-5.935653,-1.581918,0.000000,0.000000,0.000000"
"134081,-0.192394,-0.479517,-0.523069,-0.677825,-0.109741,0.477539,-0.892212,1.276187,-4.698882,-1.361408,0.000000,0.000000,0.000000"
"134108,-0.197684,-0.492449,-0.526469,-0.664263,0.160522,0.551514,-0.729736,1.672465,-3.477023,-0.187487,-14.000000,8.000000,-38.000000"
"134129,-0.203835,-0.508965,-0.530021,-0.646903,0.242310,0.512207,-0.578369,2.194445,-4.337757,-0.110787,0.000000,0.000000,0.000000"
"134154,-0.205271,-0.512018,-0.544226,-0.632076,0.135254,0.410156,-0.763428,3.225621,-1.395496,-1.898301,0.000000,0.000000,0.000000"
"134176,-0.199124,-0.503408,-0.561070,-0.626204,0.197266,0.588135,-0.683472,2.891127,1.924933,-2.107093,0.000000,0.000000,0.000000"
"134202,-0.199449,-0.493122,-0.574674,-0.621933,0.215942,0.626587,-0.656494,1.542503,1.380583,-2.720685,-4.000000,8.000000,-30.000000"
"134231,-0.197566,-0.494066,-0.577626,-0.619043,0.453125,0.563110,-0.585449,0.771251,-0.014914,-0.129962,0.000000,0.000000,0.000000"
"134260,-0.212285,-0.500073,-0.583727,-0.603427,0.339355,0.488525,-0.609741,1.184574,-3.689010,-2.390453,0.000000,0.000000,0.000000"
"134284,-0.220117,-0.508519,-0.592211,-0.585015,0.393311,0.641113,-0.540161,2.599245,-3.369431,-1.643703,0.000000,0.000000,0.000000"
"134314,-0.230732,-0.524489,-0.602408,-0.555679,0.558716,0.526855,-0.584595,4.230165,-5.681055,-1.734250,2.000000,-16.000000,-27.000000"
"134340,-0.242727,-0.525405,-0.608967,-0.542395,0.412109,0.414673,-0.285400,1.014132,-2.656770,-2.695119,0.000000,0.000000,0.000000"
"134361,-0.245286,-0.517431,-0.613386,-0.543928,0.770020,0.361450,-0.088989,-0.356864,0.876713,-1.792840,0.000000,0.000000,0.000000"
"134386,-0.247001,-0.514059,-0.611821,-0.548095,0.735107,0.320313,-0.189209,-1.047155,0.464455,-0.402670,0.000000,0.000000,0.000000"
"134412,-0.256509,-0.505362,-0.603626,-0.560757,0.742065,0.453857,-0.356567,-3.859453,0.619984,-0.725445,-6.000000,-16.000000,-28.000000"
"134437,-0.266052,-0.507252,-0.598031,-0.560599,0.864746,0.213623,-0.429687,-1.555286,-1.688444,-0.455933,0.000000,0.000000,0.000000"
"134462,-0.278002,-0.506348,-0.593367,-0.560572,0.719482,0.140137,-0.148437,-1.806688,-1.610680,-1.138768,0.000000,0.000000,0.000000"
"134486,-0.273161,-0.510349,-0.594066,-0.558581,0.647949,0.510620,-0.232788,0.985370,-0.069242,0.648746,0.000000,0.000000,0.000000"
"134512,-0.267927,-0.512744,-0.597325,-0.555438,0.522339,0.737793,-0.386353,1.373126,0.137419,0.302535,-6.000000,-10.000000,-27.000000"
"134534,-0.261480,-0.515554,-0.601732,-0.551135,0.712891,0.375122,-0.256958,1.767274,0.219444,0.188552,0.000000,0.000000,0.000000"
"134559,-0.255261,-0.517328,-0.605089,-0.548708,0.684570,0.357056,-0.162842,1.376322,0.435693,0.252468,0.000000,0.000000,0.000000"
"134584,-0.254243,-0.515977,-0.609991,-0.545013,0.804932,0.303589,-0.317871,0.965129,0.104396,-0.922519,0.000000,0.000000,0.000000"
"134609,-0.253025,-0.514095,-0.614749,-0.542004,0.912354,0.229614,-0.294189,0.935302,0.235423,-0.828776,-3.000000,-23.000000,-23.000000"
"134634,-0.259832,-0.507032,-0.619327,-0.540221,0.880981,0.108154,-0.252930,-0.382430,-0.060720,-2.324407,0.000000,0.000000,0.000000"
"134659,-0.271496,-0.498410,-0.624987,-0.535974,0.947876,0.100586,-0.100098,-0.503870,-0.690291,-3.265035,0.000000,0.000000,0.000000"
"134679,-0.280263,-0.497128,-0.625454,-0.532094,0.849731,0.287109,-0.083862,-0.407996,-1.363539,-1.507349,0.000000,0.000000,0.000000"
"134708,-0.288959,-0.501942,-0.620554,-0.528649,1.026611,0.191406,-0.068237,-0.654072,-2.271144,-0.112918,-7.000000,-17.000000,-22.000000"
"134728,-0.295552,-0.520907,-0.615692,-0.512083,1.100830,0.192749,-0.159424,1.961152,-4.806473,1.038633,0.000000,0.000000,0.000000"
"134753,-0.309785,-0.541058,-0.611240,-0.487519,0.576050,0.180420,-0.063965,2.275405,-6.685599,-0.111853,0.000000,0.000000,0.000000"
"134774,-0.321658,-0.557417,-0.607868,-0.465101,0.797485,0.084351,0.247070,2.174205,-5.719404,-0.279099,0.000000,0.000000,0.000000"
"134799,-0.331672,-0.573371,-0.603413,-0.443996,0.731201,0.079468,0.413818,2.107093,-5.374259,0.071373,0.000000,0.000000,0.000000"
"134825,-0.347956,-0.582134,-0.599962,-0.424374,0.647461,0.094849,0.463501,0.853277,-5.254950,-1.350755,-6.000000,-44.000000,-2.000000"
"134851,-0.361930,-0.591266,-0.594136,-0.407938,0.531372,0.119507,0.521606,0.544350,-4.795820,-0.608266,0.000000,0.000000,0.000000"
"134876,-0.375023,-0.600169,-0.589098,-0.390024,0.492798,0.105591,0.574707,0.872451,-4.786233,-0.757403,0.000000,0.000000,0.000000"
"134896,-0.380542,-0.612959,-0.580876,-0.376898,0.426147,0.054810,0.687378,1.260208,-3.855192,1.042894,0.000000,0.000000,0.000000"
"134922,-0.385840,-0.629886,-0.568623,-0.361992,0.706787,0.128662,0.633179,1.511610,-4.681837,1.868474,-6.000000,-39.000000,18.000000"
"134948,-0.397400,-0.643286,-0.554087,-0.348201,0.158447,0.053711,0.737061,0.155529,-5.148423,1.440237,0.000000,0.000000,0.000000"
"134973,-0.392377,-0.642604,-0.554215,-0.354888,-0.117432,-0.095093,0.938965,-0.085221,1.476456,0.795752,0.000000,0.000000,0.000000"
"134998,-0.383537,-0.638752,-0.560130,-0.362146,0.231689,-0.064087,0.822632,0.503870,2.638660,-0.006392,0.000000,0.000000,0.000000"
"135024,-0.377020,-0.634058,-0.568294,-0.364512,0.066895,-0.187622,0.759399,0.853277,1.990979,-0.921454,-1.000000,-23.000000,21.000000"
"135049,-0.368418,-0.628220,-0.574273,-0.373923,0.267456,-0.193970,0.800903,0.063916,3.033873,-0.103331,0.000000,0.000000,0.000000"
"135070,-0.362667,-0.621411,-0.572855,-0.392631,0.650879,-0.224121,0.827759,-1.990979,3.391802,1.165399,0.000000,0.000000,0.000000"
"135090,-0.356634,-0.616563,-0.580689,-0.394288,0.435059,-0.186157,1.193848,0.874582,1.830124,-0.955542,0.000000,0.000000,0.000000"
"135117,-0.354104,-0.606632,-0.593362,-0.393103,0.399780,-0.436279,1.010132,0.797883,1.817341,-2.621616,-5.000000,-42.000000,7.000000"
"135140,-0.353618,-0.596895,-0.598364,-0.400788,1.023193,-0.202881,1.057007,-1.105744,2.082592,-1.225054,0.000000,0.000000,0.000000"
"135165,-0.355738,-0.589540,-0.602303,-0.403887,1.221680,-0.274048,1.262695,-0.785100,0.958738,-1.346494,0.000000,0.000000,0.000000"
"135190,-0.360486,-0.579924,-0.608663,-0.404063,0.565552,-0.187622,0.749634,-0.706270,0.657268,-2.315885,0.000000,0.000000,0.000000"
"135216,-0.364621,-0.569599,-0.613378,-0.407891,0.882080,-0.101440,0.869873,-1.238903,1.081243,-1.912150,-13.000000,-33.000000,1.000000"
"135241,-0.372072,-0.556775,-0.621051,-0.407258,1.346924,-0.177856,1.147339,-1.036502,0.594418,-3.153183,0.000000,0.000000,0.000000"
"135269,-0.380302,-0.545052,-0.624021,-0.410958,0.519775,-0.341797,0.652710,-1.968608,0.549676,-2.216815,0.000000,0.000000,0.000000"
"135289,-0.383836,-0.533023,-0.626017,-0.420308,0.786987,-0.232178,0.637451,-2.263687,1.696966,-1.350755,0.000000,0.000000,0.000000"
"135318,-0.387905,-0.524465,-0.625312,-0.428312,1.302368,-0.094238,0.946655,-2.082592,0.973652,-0.790426,-23.000000,-45.000000,2.000000"
"135338,-0.395162,-0.518486,-0.624372,-0.430324,0.908691,-0.119263,0.746216,-1.510545,-0.275903,-1.171791,0.000000,0.000000,0.000000"
"135363,-0.404914,-0.508393,-0.624607,-0.432953,0.487305,-0.298828,0.460693,-2.080461,-0.071373,-1.960086,0.000000,0.000000,0.000000"
"135392,-0.422617,-0.501817,-0.611783,-0.441924,1.069824,-0.312866,0.853760,-4.519917,-1.782187,-0.380299,0.000000,0.000000,0.000000"
"135418,-0.453255,-0.509332,-0.572980,-0.454790,1.001099,0.012329,0.568359,-7.383347,-6.440588,3.098854,-22.000000,-35.000000,16.000000"
"135440,-0.478654,-0.513698,-0.537143,-0.467421,0.620972,0.146851,0.404419,-6.842193,-5.282646,2.901780,0.000000,0.000000,0.000000"
"135466,-0.507397,-0.517025,-0.501411,-0.473096,0.874634,0.182007,0.738159,-6.519418,-6.243514,1.807754,0.000000,0.000000,0.000000"
"135488,-0.527942,-0.521303,-0.492407,-0.455035,0.593018,0.944458,1.145264,-0.629571,-5.244297,-2.468218,0.000000,0.000000,0.000000"
"135514,-0.535492,-0.519495,-0.494509,-0.445908,0.572144,0.647827,1.031494,0.232228,-1.337972,-2.133724,-18.000000,-22.000000,26.000000"
"135538,-0.541852,-0.517987,-0.496717,-0.437445,0.609497,0.370605,0.919312,0.298274,-1.132376,-1.910019,0.000000,0.000000,0.000000"
"135564,-0.550701,-0.515806,-0.497520,-0.427956,0.692993,0.355713,1.014648,-0.055394,-1.577657,-2.160356,0.000000,0.000000,0.000000"
"135592,-0.560496,-0.516082,-0.493404,-0.419590,0.673340,0.610229,0.994141,-0.410127,-2.305232,-1.372061,0.000000,0.000000,0.000000"
"135622,-0.559995,-0.521825,-0.493057,-0.413521,0.357178,0.543213,0.988281,1.389105,-1.121723,-0.105461,-24.000000,-27.000000,37.000000"
"135651,-0.563485,-0.533491,-0.495350,-0.390514,0.325195,0.051025,1.031128,3.483414,-3.441869,-1.980326,0.000000,0.000000,0.000000"
"135672,-0.567870,-0.548275,-0.494679,-0.363609,0.349243,0.149780,1.082520,3.894607,-4.523113,-1.866343,0.000000,0.000000,0.000000"
"135692,-0.564439,-0.566184,-0.495963,-0.338917,0.158691,0.276245,0.979980,5.034440,-3.510046,-0.941694,0.000000,0.000000,0.000000"
"135719,-0.556073,-0.582354,-0.503736,-0.312885,0.276123,0.061646,0.871948,5.976133,-2.365952,-1.669269,-40.000000,-1.000000,34.000000"
"135748,-0.557779,-0.578239,-0.507634,-0.311175,0.161011,-0.440674,0.784912,-0.187487,0.329167,-1.169660,0.000000,0.000000,0.000000"
"135773,-0.558406,-0.570570,-0.511842,-0.317253,0.179077,-0.050781,1.078369,-1.210140,1.597896,-0.637028,0.000000,0.000000,0.000000"
"135794,-0.562642,-0.568505,-0.514114,-0.309714,0.250732,-0.028687,1.052856,0.273773,-0.895887,-1.596831,0.000000,0.000000,0.000000"
"135820,-0.573236,-0.565726,-0.508120,-0.305235,0.204346,0.060181,1.225952,-1.331581,-2.122007,-0.772317,-39.000000,-4.000000,32.000000"
"135845,-0.580607,-0.560737,-0.505689,-0.304545,-0.191772,-0.205688,1.293213,-1.412541,-0.780839,-0.746750,0.000000,0.000000,0.000000"
"135870,-0.584202,-0.555534,-0.507034,-0.304969,-0.154663,-0.225464,1.189941,-0.896953,0.176834,-0.833037,0.000000,0.000000,0.000000"
"135890,-0.584721,-0.554689,-0.508496,-0.303071,-0.112915,0.043213,1.190430,0.204531,-0.019175,-0.494283,0.000000,0.000000,0.000000"
"135921,-0.583775,-0.556234,-0.510100,-0.299347,-0.118286,-0.176392,1.238159,0.852211,-0.237554,-0.377104,-39.000000,0.000000,34.000000"
"135941,-0.582607,-0.560527,-0.509826,-0.294034,-0.078247,-0.324219,1.107056,1.221858,-0.740359,-0.071373,0.000000,0.000000,0.000000"
"135966,-0.582761,-0.562474,-0.510056,-0.289579,-0.074829,-0.172241,0.999756,0.746750,-0.581634,-0.346211,0.000000,0.000000,0.000000"
"135991,-0.584364,-0.561949,-0.511158,-0.285395,-0.123535,-0.111694,1.212769,0.321710,-0.452737,-0.747816,0.000000,0.000000,0.000000"
"136017,-0.585519,-0.566092,-0.509967,-0.276842,-0.150269,-0.211182,1.360229,1.249555,-1.467934,-0.486826,-45.000000,-5.000000,35.000000"
"136041,-0.586707,-0.572947,-0.506099,-0.267152,-0.082153,-0.520508,1.121948,1.498827,-2.029329,-0.050067,0.000000,0.000000,0.000000"
"136066,-0.593567,-0.575204,-0.501546,-0.255480,-0.308350,-0.622437,1.201172,0.471912,-2.663161,-0.959803,0.000000,0.000000,0.000000"
"136089,-0.597703,-0.575169,-0.501630,-0.245559,-0.190186,-0.402344,1.058838,0.579504,-1.520132,-1.381648,0.000000,0.000000,0.000000"
"136115,-0.602656,-0.572820,-0.501602,-0.238910,-0.120728,-0.234009,0.803101,-0.105461,-1.155812,-1.232511,-48.000000,6.000000,35.000000"
"136135,-0.607383,-0.569848,-0.502521,-0.232018,-0.130859,-0.467896,0.815796,-0.110787,-0.987500,-1.437042,0.000000,0.000000,0.000000"
"136157,-0.611888,-0.565768,-0.504999,-0.224668,-0.061523,-0.479004,0.706909,-0.105461,-0.777643,-1.773665,0.000000,0.000000,0.000000"
"136182,-0.617446,-0.559370,-0.507008,-0.220928,0.054565,-0.082153,0.677856,-0.874582,-0.423975,-1.581918,0.000000,0.000000,0.000000"
"136208,-0.623841,-0.551618,-0.509190,-0.217407,0.041748,-0.032471,0.667358,-1.131311,-0.420779,-1.724663,-45.000000,26.000000,39.000000"
"136233,-0.628811,-0.546299,-0.510456,-0.213516,0.004395,-0.066284,0.768799,-0.689226,-0.514523,-1.379517,0.000000,0.000000,0.000000"
"136258,-0.635216,-0.539861,-0.509913,-0.212226,0.025513,-0.148193,0.761963,-1.332646,-0.557133,-1.029045,0.000000,0.000000,0.000000"
"136283,-0.641901,-0.532169,-0.509756,-0.211913,-0.060791,0.000488,0.678711,-1.596831,-0.372843,-1.083374,0.000000,0.000000,0.000000"
"136309,-0.644174,-0.528719,-0.512005,-0.208199,-0.078003,0.065796,0.624146,-0.109722,-0.177899,-1.132376,-39.000000,16.000000,39.000000"
"136331,-0.640486,-0.531206,-0.515914,-0.203544,-0.017090,0.029785,0.656494,1.425324,0.322775,-0.604005,0.000000,0.000000,0.000000"
"136351,-0.635926,-0.533032,-0.520599,-0.201127,0.027710,0.012451,0.635376,1.231446,0.775512,-0.436758,0.000000,0.000000,0.000000"
"136376,-0.634984,-0.527787,-0.525993,-0.203878,0.167114,0.232910,0.797852,-0.558199,1.323058,-0.759533,0.000000,0.000000,0.000000"
"136402,-0.635702,-0.521414,-0.529566,-0.208735,0.112671,0.136353,0.988770,-1.152616,1.163269,-0.450607,-39.000000,14.000000,36.000000"
"136427,-0.634710,-0.518824,-0.531717,-0.212699,0.131592,0.166382,0.955078,-0.479369,0.936367,0.029827,0.000000,0.000000,0.000000"
"136449,-0.631673,-0.520595,-0.533042,-0.214093,0.190308,0.185669,0.791382,0.523045,0.595483,0.330232,0.000000,0.000000,0.000000"
"136474,-0.626904,-0.524129,-0.534498,-0.215853,0.213379,0.188965,0.839111,0.891626,0.758468,0.624245,0.000000,0.000000,0.000000"
"136494,-0.615662,-0.535984,-0.535405,-0.216848,0.237793,0.187988,0.941650,2.669553,0.940628,1.755556,0.000000,0.000000,0.000000"
"136522,-0.602860,-0.550455,-0.534949,-0.217687,0.209595,0.032227,0.923950,3.131877,0.780839,2.259426,-44.000000,10.000000,35.000000"
"136542,-0.594849,-0.560488,-0.532801,-0.219387,0.090820,-0.393799,0.964600,1.869539,0.373908,1.867408,0.000000,0.000000,0.000000"
"136567,-0.592355,-0.563050,-0.530964,-0.223980,0.041138,-0.389038,1.072266,0.070307,0.475108,1.140898,0.000000,0.000000,0.000000"
"136592,-0.588024,-0.569356,-0.527597,-0.227382,0.080933,-0.292480,1.013184,0.780839,0.186421,1.646899,0.000000,0.000000,0.000000"
"136617,-0.581021,-0.579664,-0.524277,-0.227021,0.045654,-0.356323,0.921753,1.967543,-0.168312,1.763013,-48.000000,0.000000,34.000000"
"136642,-0.576200,-0.586988,-0.521286,-0.227376,0.072998,-0.505493,0.947754,1.284709,-0.112918,1.380583,0.000000,0.000000,0.000000"
"136667,-0.573178,-0.592243,-0.517635,-0.229715,0.067993,-0.538940,1.084595,0.599744,-0.050067,1.389105,0.000000,0.000000,0.000000"
"136687,-0.571604,-0.599651,-0.510409,-0.230587,0.067017,-0.519531,1.182373,0.664725,-0.882039,1.799232,0.000000,0.000000,0.000000"
"136714,-0.570967,-0.607098,-0.501231,-0.232799,-0.002930,-0.558228,1.062744,0.340885,-1.071656,2.171009,-51.000000,7.000000,34.000000"
"136738,-0.572321,-0.610510,-0.493554,-0.236920,0.003906,-0.474487,1.030640,-0.493217,-0.651942,1.688444,0.000000,0.000000,0.000000"
"136763,-0.571027,-0.618067,-0.484192,-0.239748,-0.014893,-0.543213,1.045532,0.350472,-0.938498,2.281796,0.000000,0.000000,0.000000"
"136792,-0.564451,-0.633169,-0.473157,-0.237936,-0.158569,-0.686768,1.061157,2.228533,-1.553155,2.950782,0.000000,0.000000,0.000000"
"136822,-0.562160,-0.643553,-0.461458,-0.238478,-0.182739,-0.640991,1.002686,0.912932,-1.546764,2.659965,-50.000000,-7.000000,30.000000"
"136847,-0.557669,-0.655215,-0.451189,-0.236911,-0.215820,-0.739868,1.056641,1.586179,-1.481783,2.453304,0.000000,0.000000,0.000000"
"136868,-0.560423,-0.660874,-0.440403,-0.234983,-0.319702,-1.048706,1.200073,-0.029827,-1.956891,1.598962,0.000000,0.000000,0.000000"
"136893,-0.563694,-0.665333,-0.429489,-0.234778,-0.260132,-0.870972,1.118530,-0.386691,-1.733185,1.676726,0.000000,0.000000,0.000000"
"136919,-0.569678,-0.666940,-0.418797,-0.235089,-0.284912,-0.936279,0.975952,-1.098288,-1.774730,1.348625,-51.000000,-1.000000,26.000000"
"136940,-0.576534,-0.667027,-0.408363,-0.236482,-0.331421,-0.823608,0.885376,-1.473261,-1.567004,1.260208,0.000000,0.000000,0.000000"
"136965,-0.582173,-0.666866,-0.398736,-0.239526,-0.314819,-0.839355,0.800415,-1.438107,-1.144094,1.380583,0.000000,0.000000,0.000000"
"136990,-0.589137,-0.660268,-0.392940,-0.250122,-0.233032,-0.705688,0.626831,-2.782471,0.509196,1.170726,0.000000,0.000000,0.000000"
"137016,-0.596821,-0.650959,-0.388448,-0.262993,-0.160400,-0.653931,0.652466,-3.292732,1.002414,1.005610,-43.000000,-17.000000,41.000000"
"137041,-0.597640,-0.642247,-0.385284,-0.286185,-0.283813,-0.604492,0.846558,-3.061570,3.044525,2.483131,0.000000,0.000000,0.000000"
"137069,-0.594541,-0.632623,-0.387815,-0.309692,-0.083008,-0.390503,0.911133,-2.353169,4.116181,1.928128,0.000000,0.000000,0.000000"
"137089,-0.590012,-0.618872,-0.392416,-0.338957,0.020874,-0.412964,0.924927,-2.980610,5.455219,2.111354,0.000000,0.000000,0.000000"
"137119,-0.582349,-0.596987,-0.398752,-0.381409,0.187134,-0.408447,1.076050,-4.454936,8.061921,2.994458,-24.000000,-23.000000,28.000000"
"137139,-0.574144,-0.571467,-0.407950,-0.421142,0.400635,-0.110962,1.505859,-4.378236,8.418784,2.098571,0.000000,0.000000,0.000000"
"137164,-0.561129,-0.558979,-0.416145,-0.446653,0.463745,0.018555,1.570435,-1.248490,5.967611,2.043177,0.000000,0.000000,0.000000"
"137193,-0.546519,-0.549627,-0.425474,-0.467119,0.781860,0.034424,1.148804,-0.203465,5.382781,1.723598,0.000000,0.000000,0.000000"
"137219,-0.534721,-0.541362,-0.428540,-0.487190,0.807739,-0.066650,1.224487,-0.932106,4.304733,2.176335,-16.000000,-35.000000,7.000000"
"137241,-0.524919,-0.533164,-0.430424,-0.504907,0.806641,-0.000977,1.256104,-1.065264,3.752926,1.887648,0.000000,0.000000,0.000000"
"137267,-0.519246,-0.527784,-0.423922,-0.521648,0.826538,0.072144,1.085815,-1.971804,2.129463,2.494849,0.000000,0.000000,0.000000"
"137288,-0.514984,-0.521025,-0.414024,-0.540286,0.771362,0.178711,0.874512,-2.777144,2.001632,2.775014,0.000000,0.000000,0.000000"
"137314,-0.511419,-0.512605,-0.400025,-0.561842,0.757568,0.301880,0.844971,-3.687945,2.004827,3.271427,-6.000000,-37.000000,0.000000"
"137334,-0.509810,-0.507255,-0.382027,-0.580380,0.595825,0.223389,0.786865,-3.789145,0.784035,3.420564,0.000000,0.000000,0.000000"
"137356,-0.519036,-0.486608,-0.368654,-0.598254,0.494629,0.100098,0.599854,-5.862150,2.136920,0.452737,0.000000,0.000000,0.000000"
"137381,-0.525670,-0.461175,-0.371373,-0.610796,0.302246,0.451294,0.755493,-3.763579,4.040548,-1.670334,0.000000,0.000000,0.000000"
"137407,-0.511554,-0.463864,-0.375370,-0.618256,0.942505,0.395020,0.587280,1.609614,1.856756,2.193379,-5.000000,-22.000000,-9.000000"
"137432,-0.511869,-0.463343,-0.374233,-0.619074,0.658813,0.574951,0.182495,-0.282295,0.057524,-0.076699,0.000000,0.000000,0.000000"
"137457,-0.503707,-0.465228,-0.380827,-0.620333,0.340210,0.748291,0.115967,1.581918,1.233576,0.523045,0.000000,0.000000,0.000000"
"137480,-0.489126,-0.468681,-0.394434,-0.620899,0.432739,0.617554,0.141846,3.325755,2.166748,0.674312,0.000000,0.000000,0.000000"
"137505,-0.483242,-0.475704,-0.400570,-0.616219,0.924316,0.417236,0.367432,2.418150,-0.214118,0.090547,0.000000,0.000000,0.000000"
"137529,-0.479511,-0.482544,-0.404764,-0.611053,0.378052,0.498169,0.040283,2.005893,-0.583765,-0.075634,0.000000,-29.000000,-13.000000"
"137550,-0.472699,-0.477360,-0.421354,-0.609216,0.545532,0.395752,0.101074,2.342516,2.637595,-1.552090,0.000000,0.000000,0.000000"
"137572,-0.469081,-0.473358,-0.432153,-0.607568,0.522949,0.467896,-0.017822,1.374191,1.702292,-1.271926,0.000000,0.000000,0.000000"
"137593,-0.464329,-0.469114,-0.439019,-0.609584,0.515503,0.679077,-0.247314,0.589091,1.807754,-0.381365,0.000000,0.000000,0.000000"
"137619,-0.458838,-0.462014,-0.445449,-0.614479,0.623535,0.564331,-0.045166,0.283360,2.418150,-0.245011,-1.000000,-20.000000,-19.000000"
"137648,-0.444890,-0.448884,-0.453528,-0.628402,0.843994,0.457642,-0.014526,-0.187487,4.922587,0.887365,0.000000,0.000000,0.000000"
"137677,-0.429199,-0.436150,-0.454938,-0.646987,0.878052,0.351563,-0.118530,-1.275122,4.860802,2.159291,0.000000,0.000000,0.000000"
"137702,-0.427413,-0.421946,-0.457522,-0.655709,0.884277,0.593262,-0.011597,-1.556351,3.029612,-0.727576,0.000000,0.000000,0.000000"
"137728,-0.419426,-0.407815,-0.453519,-0.672376,0.790283,0.691895,-0.054565,-2.572613,3.645335,1.400823,-2.000000,-2.000000,-31.000000"
"137754,-0.413245,-0.395066,-0.449188,-0.686573,0.970947,0.616821,-0.201660,-2.510828,3.130812,1.043959,0.000000,0.000000,0.000000"
"137774,-0.406145,-0.379924,-0.450800,-0.698200,0.748413,0.656128,-0.328735,-1.630920,3.833886,0.308927,0.000000,0.000000,0.000000"
"137799,-0.396712,-0.358007,-0.458759,-0.709923,0.699097,0.756714,-0.424072,-1.144094,5.512743,-0.425040,0.000000,0.000000,0.000000"
"137825,-0.381568,-0.335813,-0.473461,-0.719354,0.458374,0.557617,-0.585571,0.377104,6.380933,-0.283360,-7.000000,16.000000,-39.000000"
"137851,-0.369689,-0.339621,-0.470341,-0.725787,0.324951,0.473877,-0.661011,-0.141680,0.812797,2.716424,0.000000,0.000000,0.000000"
"137876,-0.359826,-0.342717,-0.468840,-0.730246,0.221069,0.619019,-0.629761,0.089482,0.706270,2.130529,0.000000,0.000000,0.000000"
"137901,-0.348815,-0.345774,-0.466527,-0.735609,0.325317,0.578857,-0.516724,-0.029827,0.834102,2.389388,0.000000,0.000000,0.000000"
"137927,-0.340106,-0.349150,-0.464684,-0.739250,0.231445,0.500977,-0.531616,0.042611,0.412257,1.918541,-10.000000,11.000000,-36.000000"
"137952,-0.333474,-0.352767,-0.463426,-0.741341,0.117798,0.487305,-0.588379,0.153398,0.181095,1.544633,0.000000,0.000000,0.000000"
"137972,-0.326221,-0.355345,-0.464654,-0.742567,0.085693,0.604980,-0.677246,0.577373,0.495348,1.320928,0.000000,0.000000,0.000000"
"137997,-0.315607,-0.351492,-0.471358,-0.744760,0.108887,0.576416,-0.678955,1.120658,2.193379,0.891626,0.000000,0.000000,0.000000"
"138021,-0.299953,-0.347009,-0.474214,-0.751488,0.233643,0.608887,-0.631592,0.413323,2.788862,2.096440,-9.000000,23.000000,-31.000000"
"138046,-0.287943,-0.343810,-0.476018,-0.756499,0.198608,0.629272,-0.600586,0.268447,2.123072,1.670334,0.000000,0.000000,0.000000"
"138071,-0.280225,-0.334924,-0.486804,-0.756520,0.120728,0.561035,-0.737671,1.474326,2.748382,-0.413323,0.000000,0.000000,0.000000"
"138096,-0.267502,-0.327029,-0.495742,-0.758772,-0.060059,0.476196,-0.784912,1.362473,3.121224,0.719053,0.000000,0.000000,0.000000"
"138122,-0.246005,-0.323749,-0.501740,-0.763496,-0.203979,0.259399,-0.584595,1.478587,3.250122,2.833603,-8.000000,36.000000,-24.000000"
"138150,-0.235156,-0.320470,-0.505039,-0.766118,-0.367676,0.473755,-0.408203,0.634898,1.920672,1.374191,0.000000,0.000000,0.000000"
"138170,-0.232810,-0.323741,-0.505198,-0.765354,-0.533936,0.511353,-0.396729,0.279099,-0.318514,0.797883,0.000000,0.000000,0.000000"
"138195,-0.226742,-0.322089,-0.505744,-0.767509,-0.757446,0.324219,-0.427490,0.080960,1.009871,0.989631,0.000000,0.000000,0.000000"
"138221,-0.218642,-0.309935,-0.506836,-0.774115,-0.499634,0.380615,-0.280273,-0.689226,3.121224,0.357929,-9.000000,45.000000,-23.000000"
"138247,-0.215919,-0.306933,-0.502550,-0.778855,-0.438477,0.544556,-0.167969,-1.205879,0.820254,0.761664,0.000000,0.000000,0.000000"
"138272,-0.216319,-0.313553,-0.493560,-0.781850,-0.595215,0.382324,-0.379150,-1.555286,-1.296427,1.444498,0.000000,0.000000,0.000000"
"138297,-0.220054,-0.318933,-0.484155,-0.784508,-0.682007,0.352539,-0.481323,-1.853560,-1.467934,0.807470,0.000000,0.000000,0.000000"
"138322,-0.227153,-0.322829,-0.473903,-0.787146,-0.614624,0.202881,-0.602417,-2.319081,-1.618137,0.124636,-17.000000,47.000000,-21.000000"
"138347,-0.234928,-0.318417,-0.461028,-0.794275,-0.765625,0.400146,-0.725220,-3.544134,-0.175769,-0.345146,0.000000,0.000000,0.000000"
"138371,-0.246537,-0.297093,-0.446674,-0.807117,-0.805054,0.355713,-0.976318,-5.361476,2.458630,-2.167813,0.000000,0.000000,0.000000"
"138396,-0.251816,-0.265658,-0.440929,-0.819510,-0.462158,0.680176,-0.967896,-4.074636,5.068528,-2.621616,0.000000,0.000000,0.000000"
"138422,-0.249970,-0.256407,-0.440693,-0.823140,-0.533936,0.446167,-0.769531,-0.908670,1.818406,-0.259925,-21.000000,49.000000,-11.000000"
"138448,-0.244439,-0.258759,-0.439694,-0.824598,-0.762573,0.354492,-0.675659,-0.031958,0.082025,1.377387,0.000000,0.000000,0.000000"
"138468,-0.235718,-0.256867,-0.442122,-0.826429,-0.786621,0.440308,-0.788574,0.449542,1.257012,1.364604,0.000000,0.000000,0.000000"
"138493,-0.220379,-0.244156,-0.452194,-0.829061,-0.828857,0.451172,-0.905884,1.467934,4.037352,1.143029,0.000000,0.000000,0.000000"
"138519,-0.189625,-0.211384,-0.472994,-0.834048,-0.899170,0.403076,-0.650269,2.907106,9.319999,1.446629,-26.000000,43.000000,4.000000"
"138544,-0.152830,-0.165227,-0.492774,-0.840546,-0.755859,0.309448,-0.092896,2.441586,12.147209,1.349690,0.000000,0.000000,0.000000"
"138570,-0.142310,-0.150142,-0.496674,-0.842924,-0.419189,0.200806,0.424805,0.387756,3.698598,0.337689,0.000000,0.000000,0.000000"
"138595,-0.138077,-0.154610,-0.496059,-0.843182,-0.897461,0.115356,-0.033325,0.108657,-0.422910,1.340103,0.000000,0.000000,0.000000"
"138621,-0.129921,-0.151486,-0.500452,-0.842449,-0.803345,0.282593,0.293457,0.980043,1.323058,1.069525,-30.000000,37.000000,15.000000"
"138646,-0.119739,-0.137760,-0.511446,-0.839707,-0.830444,0.257935,0.311523,2.108158,3.453587,0.084156,0.000000,0.000000,0.000000"
"138666,-0.109909,-0.121046,-0.524237,-0.835729,-0.641113,0.316406,0.406616,2.476740,3.932956,-0.366451,0.000000,0.000000,0.000000"
"138692,-0.101782,-0.107737,-0.536097,-0.831043,-0.634033,0.240112,0.467896,2.444782,3.157444,-0.301470,0.000000,0.000000,0.000000"
"138717,-0.098348,-0.096872,-0.553001,-0.821665,-0.641357,0.139404,0.588379,3.759318,2.253034,-1.030111,-30.000000,42.000000,26.000000"
"138742,-0.093294,-0.084215,-0.573525,-0.809489,-0.713501,0.187012,0.491211,4.637096,2.753709,-1.084439,0.000000,0.000000,0.000000"
"138766,-0.094394,-0.082217,-0.581750,-0.803677,-0.776001,-0.188110,0.432617,2.006958,0.215183,-0.551807,0.000000,0.000000,0.000000"
"138790,-0.089316,-0.071070,-0.586609,-0.801786,-1.136597,0.013672,0.511963,0.928910,2.400041,-0.471912,0.000000,0.000000,0.000000"
"138816,-0.082571,-0.070221,-0.592751,-0.798059,-0.824707,-0.040527,0.589600,1.588309,0.944889,0.945955,-38.000000,38.000000,21.000000"
"138836,-0.077003,-0.070339,-0.594765,-0.797106,-0.861206,-0.117920,0.624512,0.588026,0.630637,0.954477,0.000000,0.000000,0.000000"
"138859,-0.072095,-0.071974,-0.594460,-0.797646,-0.823730,0.013062,0.704590,0.061785,0.296144,1.083374,0.000000,0.000000,0.000000"
"138884,-0.066925,-0.073951,-0.595030,-0.797491,-0.773071,0.059204,0.853149,0.301470,0.278034,1.131311,0.000000,0.000000,0.000000"
"138910,-0.058645,-0.067951,-0.595111,-0.798615,-0.734497,-0.072021,0.992554,0.033023,1.944107,0.694552,-40.000000,30.000000,31.000000"
"138935,-0.044673,-0.054658,-0.596147,-0.799766,-0.801147,-0.211060,0.885132,0.148072,3.787015,0.720119,0.000000,0.000000,0.000000"
"138960,-0.032075,-0.045220,-0.595792,-0.801223,-0.953979,-0.106567,0.814087,-0.098004,2.993393,0.994957,0.000000,0.000000,0.000000"
"138983,-0.025289,-0.039491,-0.593296,-0.803618,-0.783691,0.097534,1.287109,-0.560329,1.708684,0.504935,0.000000,0.000000,0.000000"
"139014,-0.022476,-0.037093,-0.586821,-0.808554,-0.926636,-0.375366,1.011475,-1.511610,0.719053,0.318514,-38.000000,22.000000,33.000000"
"139043,-0.016006,-0.032228,-0.590173,-0.806475,-0.773193,-0.099121,1.027222,0.905475,1.519067,0.509196,0.000000,0.000000,0.000000"
"139071,-0.013390,-0.029328,-0.592520,-0.804911,-0.677979,0.227539,1.077515,0.672182,0.747816,0.128897,0.000000,0.000000,0.000000"
"139100,-0.012007,-0.027609,-0.593478,-0.804287,-0.552979,0.365356,1.045044,0.338754,0.415453,0.076699,0.000000,0.000000,0.000000"
"139130,-0.013310,-0.025680,-0.594173,-0.803817,-0.471191,0.121582,1.002075,0.282295,0.156594,-0.387756,-39.000000,27.000000,36.000000"
"139159,-0.011213,-0.025347,-0.589533,-0.807269,-0.235352,-0.376953,1.066162,-1.045024,0.299339,0.349407,0.000000,0.000000,0.000000"
"139179,-0.011150,-0.022263,-0.588835,-0.807870,-0.302979,-0.049683,0.903809,-0.083091,0.492152,-0.313188,0.000000,0.000000,0.000000"
"139202,-0.008031,-0.017780,-0.589711,-0.807379,-0.360962,0.198730,0.816772,0.313188,1.070591,0.024501,0.000000,0.000000,0.000000"
"139230,-0.002321,-0.013133,-0.590969,-0.806584,-0.390625,0.108643,0.764038,0.437824,1.425324,0.432497,-38.000000,19.000000,30.000000"
"139250,0.004232,-0.012857,-0.590641,-0.806821,-0.408447,-0.052979,0.751831,0.037284,0.800014,1.078048,0.000000,0.000000,0.000000"
"139274,0.014123,-0.014391,-0.587484,-0.808985,-0.506470,-0.195557,0.755493,-0.646616,0.907605,1.839712,0.000000,0.000000,0.000000"
"139299,0.031374,-0.012628,-0.581676,-0.812717,-0.487915,-0.099243,0.715332,-1.227185,2.313754,2.650378,0.000000,0.000000,0.000000"
"139325,0.042190,-0.006839,-0.580040,-0.813466,-0.235840,0.226807,1.239136,-0.152333,2.225337,1.113201,-40.000000,20.000000,39.000000"
"139351,0.042182,-0.001982,-0.582961,-0.811402,-0.511230,0.187012,1.075317,0.862864,0.735032,-0.495348,0.000000,0.000000,0.000000"
"139376,0.046188,0.008741,-0.580709,-0.812753,-0.526489,-0.044800,1.020874,-0.328101,2.201901,-0.558199,0.000000,0.000000,0.000000"
"139401,0.062284,0.016630,-0.572365,-0.817461,-0.372070,-0.041626,1.159058,-1.748099,3.202185,1.675661,0.000000,0.000000,0.000000"
"139427,0.085235,0.027853,-0.561432,-0.822650,-0.163696,0.148071,1.217041,-2.185922,4.613660,2.395780,-41.000000,1.000000,41.000000"
"139447,0.102300,0.039113,-0.557507,-0.822916,0.353149,0.213867,1.616455,-0.458064,3.836017,1.489240,0.000000,0.000000,0.000000"
"139473,0.110500,0.044000,-0.555378,-0.823049,0.239380,0.234375,1.419678,-0.206661,1.761947,0.763795,0.000000,0.000000,0.000000"
"139497,0.119187,0.048819,-0.553424,-0.822881,0.120239,0.158569,1.281250,-0.150202,1.799232,0.869256,0.000000,0.000000,0.000000"
"139523,0.136394,0.051987,-0.550315,-0.822100,0.189697,-0.022705,1.217407,-0.397344,2.559830,2.471413,-39.000000,-15.000000,43.000000"
"139547,0.155749,0.052412,-0.549226,-0.819357,0.229004,-0.029419,1.198120,0.052198,2.258361,3.174488,0.000000,0.000000,0.000000"
"139568,0.169375,0.050698,-0.549977,-0.816252,0.437622,0.075317,1.153564,0.385626,1.232511,2.478870,0.000000,0.000000,0.000000"
"139588,0.181310,0.050512,-0.550495,-0.813345,0.475220,0.143555,1.030151,0.394148,1.303884,2.015480,0.000000,0.000000,0.000000"
"139615,0.195184,0.053625,-0.549678,-0.810482,0.398071,0.096802,1.043579,0.269512,2.158226,1.993110,-32.000000,-21.000000,35.000000"
"139636,0.212915,0.057396,-0.546687,-0.807779,0.271484,-0.104492,1.023560,-0.113983,2.701511,2.500176,0.000000,0.000000,0.000000"
"139661,0.233767,0.064089,-0.542594,-0.804262,0.128052,-0.049072,1.024292,-0.111853,3.562244,2.722816,0.000000,0.000000,0.000000"
"139686,0.253276,0.066343,-0.541136,-0.799138,0.148804,0.130127,1.120850,0.300405,2.598180,3.097789,0.000000,0.000000,0.000000"
"139712,0.268702,0.052553,-0.544712,-0.792670,0.398071,0.253662,1.080444,0.461259,-0.569916,4.332430,-20.000000,-39.000000,31.000000"
"139737,0.280234,0.042823,-0.548799,-0.786419,0.490601,0.040649,0.873535,0.800014,-0.437824,3.200054,0.000000,0.000000,0.000000"
"139761,0.283942,0.039795,-0.551556,-0.783313,0.475342,0.119263,0.928345,0.691357,-0.202400,1.052481,0.000000,0.000000,0.000000"
"139786,0.286926,0.038968,-0.553588,-0.780830,0.370239,0.256714,0.987183,0.644485,0.087352,0.673247,0.000000,0.000000,0.000000"
"139812,0.291995,0.037107,-0.554522,-0.778375,0.352173,0.186279,0.996094,0.366451,0.278034,1.151551,-18.000000,-34.000000,31.000000"
"139837,0.302231,0.034114,-0.551734,-0.776583,0.406738,0.217163,0.924316,-0.364320,0.829841,1.957956,0.000000,0.000000,0.000000"
"139857,0.312094,0.033411,-0.546574,-0.776362,0.266724,0.191528,0.948486,-0.763795,1.265534,1.557416,0.000000,0.000000,0.000000"
"139882,0.319132,0.034627,-0.542126,-0.776566,0.203003,0.115479,0.921143,-0.562460,1.203749,0.893757,0.000000,0.000000,0.000000"
"139908,0.321817,0.037308,-0.539386,-0.777242,0.284424,0.134644,0.935425,-0.251402,0.909736,0.077764,-13.000000,-26.000000,25.000000"
"139933,0.324721,0.035718,-0.536468,-0.778128,0.368286,0.245972,0.993408,-0.547546,0.224771,0.502805,0.000000,0.000000,0.000000"
"139958,0.329679,0.029027,-0.534052,-0.777983,0.077026,0.201782,1.059082,-0.708401,-0.392017,1.479652,0.000000,0.000000,0.000000"
"139983,0.334396,0.019456,-0.532271,-0.777488,0.111084,0.216309,0.993408,-0.759533,-0.906540,1.772600,0.000000,0.000000,0.000000"
"140003,0.337783,0.010046,-0.531840,-0.776497,0.201904,0.256592,0.790771,-0.477238,-1.107875,1.572330,0.000000,0.000000,0.000000"
"140030,0.347967,0.000701,-0.532214,-0.771794,0.256226,0.122070,0.627930,-0.003196,-0.354733,2.897519,-6.000000,-22.000000,26.000000"
"140054,0.355851,-0.000422,-0.528739,-0.770587,0.298218,0.362183,0.624634,-0.356864,0.870321,1.378452,0.000000,0.000000,0.000000"
"140079,0.366156,0.003062,-0.522788,-0.769814,0.134888,0.306274,0.647217,-0.463390,1.990979,1.276187,0.000000,0.000000,0.000000"
"140108,0.377252,0.010216,-0.514370,-0.770065,0.121094,0.257813,0.611206,-0.749946,2.862365,0.999218,0.000000,-36.000000,18.000000"
"140133,0.385141,0.019739,-0.506044,-0.771490,0.082153,0.357788,0.604370,-0.607201,2.831473,0.136354,0.000000,0.000000,0.000000"
"140158,0.390944,0.030454,-0.497805,-0.773579,0.191406,0.406982,0.568726,-0.548611,2.808037,-0.385626,0.000000,0.000000,0.000000"
"140183,0.396247,0.037862,-0.491875,-0.774348,0.224731,0.486450,0.562744,-0.311057,2.078331,-0.021305,0.000000,0.000000,0.000000"
"140208,0.398176,0.039373,-0.490398,-0.774219,0.192627,0.386475,0.559204,0.025566,0.493217,0.135289,0.000000,0.000000,0.000000"
"140230,0.399377,0.039374,-0.490159,-0.773752,0.163330,0.332153,0.553589,0.021305,0.136354,0.302535,-1.000000,-40.000000,14.000000"
"140256,0.399908,0.038949,-0.489155,-0.774134,0.100708,0.346436,0.507935,-0.103331,-0.003196,0.105461,0.000000,0.000000,0.000000"
"140276,0.398691,0.039636,-0.488477,-0.775154,0.098022,0.317017,0.486572,-0.011718,-0.030893,-0.325971,0.000000,0.000000,0.000000"
"140299,0.396274,0.040819,-0.488570,-0.776273,0.139404,0.287964,0.496338,0.153398,-0.119310,-0.586961,0.000000,0.000000,0.000000"
"140325,0.392672,0.042880,-0.490262,-0.776925,0.174805,0.394409,0.598633,0.413323,-0.168312,-0.724380,1.000000,-36.000000,17.000000"
"140350,0.390425,0.044054,-0.491557,-0.777174,0.213135,0.423462,0.659424,0.425040,-0.186421,-0.487891,0.000000,0.000000,0.000000"
"140375,0.387453,0.044774,-0.492183,-0.778223,0.266113,0.371948,0.696899,0.214118,-0.269512,-0.644485,0.000000,0.000000,0.000000"
"140400,0.382354,0.046415,-0.493263,-0.779963,0.296997,0.376343,0.744385,0.306796,-0.372843,-1.120658,0.000000,0.000000,0.000000"
"140429,0.376079,0.047267,-0.495452,-0.781574,0.242798,0.449951,0.964722,0.362190,-0.649811,-1.105744,-5.000000,-31.000000,19.000000"
"140455,0.369039,0.045934,-0.498745,-0.782914,0.269043,0.392578,1.096924,0.481499,-1.202684,-1.056742,0.000000,0.000000,0.000000"
"140475,0.360808,0.042675,-0.504024,-0.783553,0.377930,0.390015,1.112427,0.731837,-1.752360,-0.998153,0.000000,0.000000,0.000000"
"140500,0.353868,0.037069,-0.512111,-0.781758,0.445801,0.407837,1.070679,1.235707,-2.164617,-0.371777,0.000000,0.000000,0.000000"
"140526,0.348929,0.032547,-0.518649,-0.779867,0.486328,0.404297,0.956787,0.994957,-1.613876,-0.103331,-8.000000,-39.000000,22.000000"
"140552,0.344167,0.029814,-0.521443,-0.780229,0.302490,0.303467,1.031616,0.367516,-1.149420,-0.494283,0.000000,0.000000,0.000000"
"140577,0.336451,0.028261,-0.521942,-0.783313,0.241577,0.123535,0.982544,-0.178964,-1.131311,-1.277252,0.000000,0.000000,0.000000"
"140602,0.324735,0.027617,-0.522065,-0.788183,0.137573,0.062378,0.949585,-0.343015,-1.395496,-2.109223,0.000000,0.000000,0.000000"
"140628,0.310700,0.025503,-0.525508,-0.791616,0.138062,-0.053101,0.968506,0.224771,-2.019741,-2.175270,-14.000000,-25.000000,32.000000"
"140649,0.299030,0.023137,-0.532043,-0.791818,0.230713,-0.078857,0.757080,1.046090,-2.027198,-1.616006,0.000000,0.000000,0.000000"
"140675,0.288099,0.024130,-0.537030,-0.792474,0.329956,-0.180054,0.701660,0.943824,-1.315602,-1.907888,0.000000,0.000000,0.000000"
"140695,0.274217,0.030524,-0.537461,-0.796874,0.324341,-0.169067,0.855347,0.147006,-0.536893,-3.183010,0.000000,0.000000,0.000000"
"140718,0.260885,0.036228,-0.537285,-0.801219,0.171753,0.098022,1.078125,0.002131,-0.509196,-2.948652,-23.000000,-35.000000,34.000000"
"140743,0.252338,0.039255,-0.539026,-0.802643,0.152344,0.165771,0.933228,0.470847,-0.558199,-1.771535,0.000000,0.000000,0.000000"
"140767,0.244261,0.043278,-0.540716,-0.803797,0.239136,-0.112915,0.789795,0.530502,-0.329167,-1.810949,0.000000,0.000000,0.000000"
"140791,0.238218,0.049959,-0.540345,-0.805471,0.346680,-0.254150,0.947021,0.251402,0.418649,-1.820537,0.000000,0.000000,0.000000"
"140817,0.232816,0.054492,-0.541587,-0.805922,0.331421,-0.084106,1.131226,0.530502,0.132093,-1.370995,-31.000000,-33.000000,30.000000"
"140842,0.224619,0.057218,-0.543936,-0.806477,0.413452,0.031006,1.351318,0.655138,-0.568851,-1.652225,0.000000,0.000000,0.000000"
"140862,0.215859,0.058687,-0.546035,-0.807345,0.337280,0.127441,1.425659,0.532632,-0.827710,-1.614941,0.000000,0.000000,0.000000"
"140887,0.206131,0.058640,-0.547871,-0.808646,0.163940,0.052979,1.307129,0.387756,-1.176052,-1.613876,0.000000,0.000000,0.000000"
"140913,0.191709,0.059837,-0.546854,-0.812784,0.211914,-0.258545,0.944946,-0.285491,-1.345429,-2.647182,-38.000000,-22.000000,32.000000"
"140938,0.178548,0.065462,-0.544657,-0.816814,0.322998,-0.298340,0.992187,-0.313188,-0.486826,-2.968892,0.000000,0.000000,0.000000"
"140963,0.169432,0.070432,-0.542490,-0.819779,0.200195,-0.083862,1.173828,-0.260990,-0.144876,-2.183792,0.000000,0.000000,0.000000"
"140988,0.162227,0.074686,-0.541802,-0.821313,0.173706,-0.003296,1.229858,0.087352,-0.084156,-1.720402,0.000000,0.000000,0.000000"
"141010,0.155411,0.079857,-0.540009,-0.823323,0.280640,-0.180786,1.109131,-0.113983,0.191748,-1.780057,-40.000000,-4.000000,29.000000"
"141036,0.147918,0.087165,-0.535931,-0.826620,0.274902,-0.243896,1.118164,-0.565655,0.475108,-2.215750,0.000000,0.000000,0.000000"
"141056,0.137065,0.095335,-0.530269,-0.831227,0.291382,-0.278320,1.144897,-0.884169,0.284426,-2.929477,0.000000,0.000000,0.000000"
"141079,0.126122,0.102620,-0.525110,-0.835357,0.258179,-0.172241,1.195557,-0.769121,0.125701,-2.825081,0.000000,0.000000,0.000000"
"141104,0.117248,0.106249,-0.522451,-0.837860,0.284424,-0.166016,1.239136,-0.315318,-0.292948,-2.004827,0.000000,0.000000,0.000000"
"141130,0.111300,0.106197,-0.522275,-0.838787,0.361328,-0.228271,1.201538,0.113983,-0.574178,-1.023719,-41.000000,-16.000000,35.000000"
"141155,0.105712,0.106349,-0.521317,-0.840085,0.243774,-0.258179,1.202881,-0.057524,-0.546481,-1.021589,0.000000,0.000000,0.000000"
"141180,0.095148,0.107954,-0.518608,-0.842816,0.156250,-0.410034,1.155518,-0.366451,-0.818123,-2.066613,0.000000,0.000000,0.000000"
"141203,0.083087,0.111034,-0.513850,-0.846597,0.251831,-0.469849,1.013306,-0.763795,-0.703074,-2.543851,0.000000,0.000000,0.000000"
"141230,0.070662,0.114223,-0.508131,-0.850742,0.126953,-0.321411,1.022339,-0.936367,-0.682835,-2.621616,-44.000000,8.000000,37.000000"
"141251,0.058471,0.117328,-0.504494,-0.853405,0.157227,-0.339844,1.015869,-0.450607,-0.697748,-2.519350,0.000000,0.000000,0.000000"
"141276,0.047247,0.121677,-0.500513,-0.855832,0.199829,-0.372681,1.067871,-0.494283,-0.374973,-2.487392,0.000000,0.000000,0.000000"
"141305,0.036162,0.125721,-0.496008,-0.858407,0.157715,-0.284546,1.168091,-0.601874,-0.410127,-2.443717,0.000000,0.000000,0.000000"
"141334,0.022662,0.128476,-0.492708,-0.860360,0.149414,-0.315063,1.157471,-0.279099,-0.828776,-2.682336,-40.000000,5.000000,49.000000"
"141359,0.008418,0.132052,-0.487357,-0.863119,0.250244,-0.338013,1.098389,-0.694552,-0.798948,-2.966761,0.000000,0.000000,0.000000"
"141380,-0.005855,0.135374,-0.480888,-0.866248,0.226196,-0.162231,1.132690,-0.920388,-0.847950,-2.979544,0.000000,0.000000,0.000000"
"141406,-0.017358,0.135730,-0.476975,-0.868200,0.210815,-0.190063,1.020630,-0.436758,-1.057808,-2.145442,0.000000,0.000000,0.000000"
"141430,-0.029353,0.136566,-0.472430,-0.870229,0.231812,-0.274780,0.927979,-0.534763,-1.003479,-2.286057,-37.000000,17.000000,39.000000"
"141455,-0.044383,0.139926,-0.465558,-0.872758,0.236816,-0.308838,0.920776,-0.928910,-0.898018,-3.118029,0.000000,0.000000,0.000000"
"141475,-0.059809,0.143396,-0.457691,-0.875431,0.202148,-0.198120,0.951904,-1.103614,-0.923584,-3.224555,0.000000,0.000000,0.000000"
"141497,-0.073594,0.145989,-0.450834,-0.877507,0.251343,-0.192627,0.861938,-0.911866,-0.890561,-2.841060,0.000000,0.000000,0.000000"
"141523,-0.086546,0.149162,-0.445028,-0.878755,0.303955,-0.169800,0.800659,-0.681769,-0.651942,-2.732403,-30.000000,20.000000,38.000000"
"141548,-0.098962,0.153348,-0.438852,-0.879829,0.339355,-0.136353,0.873047,-0.774447,-0.436758,-2.749448,0.000000,0.000000,0.000000"
"141573,-0.109681,0.157406,-0.433004,-0.880739,0.380005,0.011963,0.853760,-0.759533,-0.286556,-2.447978,0.000000,0.000000,0.000000"
"141598,-0.117641,0.161116,-0.430236,-0.880397,0.480835,0.081177,0.840332,-0.199204,0.007457,-1.876996,0.000000,0.000000,0.000000"
"141624,-0.123463,0.164675,-0.429089,-0.879501,0.561401,0.197876,0.898560,0.066046,0.236489,-1.460477,-26.000000,34.000000,44.000000"
"141649,-0.125760,0.165350,-0.429491,-0.878852,0.600098,0.380249,1.031616,0.257794,0.058590,-0.545415,0.000000,0.000000,0.000000"
"141670,-0.125042,0.164132,-0.429247,-0.879302,0.691162,0.412964,0.941895,-0.013848,-0.064981,0.141680,0.000000,0.000000,0.000000"
"141690,-0.122842,0.164031,-0.428262,-0.880111,0.727783,0.406982,0.876343,-0.256729,0.229032,0.286556,0.000000,0.000000,0.000000"
"141716,-0.118626,0.164724,-0.427881,-0.880745,0.726562,0.356201,0.876221,-0.208792,0.568851,0.592287,-25.000000,33.000000,39.000000"
"141740,-0.112146,0.165470,-0.428009,-0.881391,0.671021,0.300659,0.954590,-0.193878,0.772317,1.014132,0.000000,0.000000,0.000000"
"141765,-0.103184,0.164928,-0.427566,-0.882802,0.553101,0.134277,1.020630,-0.395213,0.710531,1.581918,0.000000,0.000000,0.000000"
"141790,-0.093000,0.163073,-0.427719,-0.884203,0.519531,0.012939,0.988037,-0.296144,0.590156,1.938781,0.000000,0.000000,0.000000"
"141816,-0.081802,0.161110,-0.428710,-0.885189,0.492187,-0.036865,0.949219,-0.135289,0.698813,2.157160,-28.000000,17.000000,44.000000"
"141840,-0.069469,0.159825,-0.430417,-0.885647,0.488770,-0.086792,0.976196,-0.012783,0.925715,2.311624,0.000000,0.000000,0.000000"
"141869,-0.056184,0.159820,-0.431339,-0.886142,0.414795,-0.160156,1.074829,-0.194943,1.213336,2.357430,0.000000,0.000000,0.000000"
"141889,-0.042092,0.160050,-0.432604,-0.886265,0.387329,-0.202515,1.102417,-0.127832,1.335842,2.491653,0.000000,0.000000,0.000000"
"141919,-0.028380,0.160182,-0.433701,-0.886250,0.379028,-0.204224,1.127441,-0.125701,1.302818,2.431999,-29.000000,19.000000,45.000000"
"141939,-0.014125,0.160102,-0.435850,-0.885552,0.373535,-0.089478,1.183105,0.099070,1.325189,2.566222,0.000000,0.000000,0.000000"
"141964,0.001537,0.160122,-0.438317,-0.884441,0.343994,-0.079834,1.204102,0.148072,1.476456,2.817624,0.000000,0.000000,0.000000"
"141987,0.017934,0.160254,-0.441137,-0.882834,0.352661,-0.116821,1.204834,0.231162,1.573395,2.949717,0.000000,0.000000,0.000000"
"142013,0.035086,0.159457,-0.444889,-0.880577,0.319336,-0.195679,1.263794,0.426106,1.516936,3.221359,-32.000000,0.000000,44.000000"
"142034,0.052999,0.157261,-0.448883,-0.878045,0.265381,-0.202759,1.276001,0.463390,1.309210,3.475958,0.000000,0.000000,0.000000"
"142059,0.070836,0.154391,-0.451877,-0.875758,0.244385,-0.185425,1.208862,0.262055,1.183509,3.488741,0.000000,0.000000,0.000000"
"142084,0.088642,0.152701,-0.453149,-0.873774,0.263062,-0.235596,1.099854,-0.050067,1.399758,3.317233,0.000000,0.000000,0.000000"
"142104,0.106294,0.152086,-0.453801,-0.871571,0.230957,-0.249512,1.123657,-0.112918,1.586179,3.180879,0.000000,0.000000,0.000000"
"142131,0.123691,0.150726,-0.455062,-0.868850,0.134033,-0.254883,1.199463,0.025566,1.469000,3.266100,-30.000000,-11.000000,42.000000"
"142156,0.141663,0.145234,-0.459441,-0.864727,0.059326,-0.231934,1.195679,0.586961,0.721184,3.853061,0.000000,0.000000,0.000000"
"142181,0.160940,0.136948,-0.464436,-0.860025,0.151001,-0.212158,1.012817,0.627441,0.360059,4.357996,0.000000,0.000000,0.000000"
"142206,0.179610,0.129918,-0.466939,-0.856055,0.245605,-0.204224,0.882690,0.185356,0.582700,4.030961,0.000000,0.000000,0.000000"
"142232,0.195248,0.126695,-0.465218,-0.854048,0.235352,-0.119873,0.904053,-0.510262,1.087635,3.000850,-25.000000,-7.000000,44.000000"
"142257,0.210542,0.123779,-0.464024,-0.851488,0.169067,-0.084717,0.973267,-0.336624,1.054612,2.930542,0.000000,0.000000,0.000000"
"142282,0.225481,0.120913,-0.465659,-0.847172,0.215820,-0.169922,0.884399,0.316384,0.955542,3.002980,0.000000,0.000000,0.000000"
"142302,0.240408,0.119351,-0.467052,-0.842509,0.325684,-0.175781,0.862549,0.363255,1.200553,2.875149,0.000000,0.000000,0.000000"
"142329,0.254833,0.119314,-0.465752,-0.838987,0.381958,-0.046265,0.937378,-0.134223,1.559547,2.563026,-20.000000,-24.000000,42.000000"
"142354,0.269995,0.118285,-0.464379,-0.835142,0.272217,0.110718,1.156860,-0.152333,1.415736,2.768622,0.000000,0.000000,0.000000"
